SpectraSuite Data File
++++++++++++++++++++++++++++++++++++
Date: Fri Jan 24 17:06:47 MST 2020
User: Molly
Dark Spectrum Present: Yes
Reference Spectrum Present: Yes
Number of Sampled Component Spectra: 1
Spectrometers: USB4E03280
Integration Time (usec): 32000 (USB4E03280)
Spectra Averaged: 1 (USB4E03280)
Boxcar Smoothing: 0 (USB4E03280)
Correct for Electrical Dark: No (USB4E03280)
Strobe/Lamp Enabled: Yes (USB4E03280)
Correct for Detector Non-linearity: No (USB4E03280)
Correct for Stray Light: No (USB4E03280)
Number of Pixels in Processed Spectrum: 3648
>>>>>Begin Processed Spectral Data<<<<<
177.66	1142.77
177.88	1142.77
178.10	1142.77
178.32	1165.29
178.54	1193.97
178.76	1247.21
178.98	1273.84
179.19	1196.01
179.41	1232.88
179.63	1269.74
179.85	1179.63
180.07	1314.80
180.29	1185.77
180.51	1228.78
180.72	1273.84
180.94	1216.49
181.16	1253.36
181.38	1249.26
181.60	1220.59
181.82	1159.15
182.04	1175.53
182.25	1251.31
182.47	1236.97
182.69	1302.51
182.91	1189.87
183.13	1222.64
183.35	1247.21
183.56	1234.93
183.78	1181.68
184.00	1185.77
184.22	1243.12
184.44	1218.54
184.66	1284.08
184.87	1247.21
185.09	1255.40
185.31	1269.74
185.53	1282.03
185.75	1269.74
185.97	1294.32
186.18	1185.77
186.40	1214.45
186.62	1210.35
186.84	1216.49
187.06	1236.97
187.28	1196.01
187.49	1214.45
187.71	1210.35
187.93	1282.03
188.15	1286.12
188.37	1288.17
188.59	1232.88
188.80	1150.96
189.02	1193.97
189.24	1339.37
189.46	1230.83
189.68	1245.16
189.89	1179.63
190.11	1187.82
190.33	1292.27
190.55	1275.88
190.77	1202.16
190.98	1220.59
191.20	1265.64
191.42	1222.64
191.64	1316.84
191.86	1218.54
192.07	1212.40
192.29	1196.01
192.51	1202.16
192.73	1234.93
192.95	1290.22
193.16	1212.40
193.38	1310.70
193.60	1163.25
193.82	1226.73
194.04	1228.78
194.25	1220.59
194.47	1212.40
194.69	1216.49
194.91	1228.78
195.13	1239.02
195.34	1171.44
195.56	1310.70
195.78	1257.45
196.00	1267.69
196.22	1251.31
196.43	1294.32
196.65	1206.25
196.87	1198.06
197.09	1257.45
197.30	1226.73
197.52	1245.16
197.74	1187.82
197.96	1249.26
198.18	1220.59
198.39	1273.84
198.61	1261.55
198.83	1257.45
199.05	1236.97
199.26	1226.73
199.48	1253.36
199.70	1216.49
199.92	1277.93
200.13	1234.93
200.35	1216.49
200.57	1247.21
200.79	1263.60
201.00	1228.78
201.22	1214.45
201.44	1327.08
201.66	1267.69
201.88	1222.64
202.09	1189.87
202.31	1245.16
202.53	1226.73
202.75	1150.96
202.96	1177.58
203.18	1179.63
203.40	1220.59
203.62	1257.45
203.83	1236.97
204.05	1288.17
204.27	1259.50
204.49	1212.40
204.70	1165.29
204.92	1253.36
205.14	1175.53
205.35	1208.30
205.57	1263.60
205.79	1239.02
206.01	1193.97
206.22	1196.01
206.44	1245.16
206.66	1230.83
206.88	1288.17
207.09	1234.93
207.31	1261.55
207.53	1239.02
207.75	1269.74
207.96	1228.78
208.18	1228.78
208.40	1273.84
208.61	1251.31
208.83	1236.97
209.05	1228.78
209.27	1263.60
209.48	1269.74
209.70	1206.25
209.92	1292.27
210.14	1236.97
210.35	1257.45
210.57	1234.93
210.79	1224.69
211.00	1257.45
211.22	1212.40
211.44	1282.03
211.66	1259.50
211.87	1269.74
212.09	1228.78
212.31	1220.59
212.52	1228.78
212.74	1251.31
212.96	1267.69
213.17	1284.08
213.39	1294.32
213.61	1226.73
213.83	1198.06
214.04	1183.73
214.26	1243.12
214.48	1222.64
214.69	1273.84
214.91	1236.97
215.13	1263.60
215.34	1232.88
215.56	1253.36
215.78	1271.79
216.00	1296.36
216.21	1273.84
216.43	1253.36
216.65	1214.45
216.86	1193.97
217.08	1253.36
217.30	1288.17
217.51	1251.31
217.73	1234.93
217.95	1189.87
218.16	1228.78
218.38	1216.49
218.60	1230.83
218.81	1261.55
219.03	1245.16
219.25	1198.06
219.46	1284.08
219.68	1208.30
219.90	1222.64
220.11	1277.93
220.33	1224.69
220.55	1169.39
220.76	1265.64
220.98	1157.10
221.20	1269.74
221.41	1206.25
221.63	1232.88
221.85	1261.55
222.06	1265.64
222.28	1208.30
222.50	1261.55
222.71	1247.21
222.93	1226.73
223.15	1292.27
223.36	1236.97
223.58	1239.02
223.80	1294.32
224.01	1144.81
224.23	1329.13
224.45	1245.16
224.66	1202.16
224.88	1208.30
225.10	1212.40
225.31	1150.96
225.53	1204.21
225.75	1253.36
225.96	1202.16
226.18	1208.30
226.39	1259.50
226.61	1265.64
226.83	1263.60
227.04	1210.35
227.26	1216.49
227.48	1216.49
227.69	1327.08
227.91	1234.93
228.13	1296.36
228.34	1322.99
228.56	1294.32
228.77	1163.25
228.99	1200.11
229.21	1239.02
229.42	1279.98
229.64	1206.25
229.86	1232.88
230.07	1198.06
230.29	1245.16
230.50	1245.16
230.72	1234.93
230.94	1243.12
231.15	1331.18
231.37	1234.93
231.58	1284.08
231.80	1302.51
232.02	1210.35
232.23	1261.55
232.45	1181.68
232.67	1265.64
232.88	1267.69
233.10	1286.12
233.31	1224.69
233.53	1220.59
233.75	1210.35
233.96	1230.83
234.18	1259.50
234.39	1212.40
234.61	1284.08
234.83	1292.27
235.04	1277.93
235.26	1204.21
235.47	1169.39
235.69	1275.88
235.91	1239.02
236.12	1228.78
236.34	1273.84
236.55	1232.88
236.77	1273.84
236.99	1267.69
237.20	1257.45
237.42	1269.74
237.63	1257.45
237.85	1216.49
238.06	1251.31
238.28	1169.39
238.50	1292.27
238.71	1257.45
238.93	1257.45
239.14	1204.21
239.36	1325.04
239.58	1245.16
239.79	1220.59
240.01	1273.84
240.22	1316.84
240.44	1183.73
240.65	1236.97
240.87	1228.78
241.09	1243.12
241.30	1140.72
241.52	1171.44
241.73	1273.84
241.95	1163.25
242.16	1179.63
242.38	1228.78
242.59	1269.74
242.81	1228.78
243.03	1267.69
243.24	1286.12
243.46	1218.54
243.67	1261.55
243.89	1208.30
244.10	1167.34
244.32	1269.74
244.53	1255.40
244.75	1241.07
244.97	1304.56
245.18	1247.21
245.40	1212.40
245.61	1226.73
245.83	1224.69
246.04	1277.93
246.26	1288.17
246.47	1214.45
246.69	1193.97
246.90	1214.45
247.12	1279.98
247.34	1245.16
247.55	1187.82
247.77	1226.73
247.98	1220.59
248.20	1218.54
248.41	1267.69
248.63	1257.45
248.84	1243.12
249.06	1218.54
249.27	1202.16
249.49	1161.20
249.70	1228.78
249.92	1206.25
250.13	1282.03
250.35	1228.78
250.56	1243.12
250.78	1267.69
251.00	1290.22
251.21	1202.16
251.43	1290.22
251.64	1318.89
251.86	1294.32
252.07	1273.84
252.29	1261.55
252.50	1204.21
252.72	1269.74
252.93	1161.20
253.15	1304.56
253.36	1181.68
253.58	1239.02
253.79	1247.21
254.01	1191.92
254.22	1232.88
254.44	1206.25
254.65	1196.01
254.87	1282.03
255.08	1273.84
255.30	1128.43
255.51	1253.36
255.73	1226.73
255.94	1179.63
256.16	1251.31
256.37	1265.64
256.59	1296.36
256.80	1206.25
257.02	1261.55
257.23	1232.88
257.45	1255.40
257.66	1263.60
257.88	1230.83
258.09	1279.98
258.31	1196.01
258.52	1224.69
258.74	1206.25
258.95	1232.88
259.16	1220.59
259.38	1239.02
259.59	1224.69
259.81	1163.25
260.02	1241.07
260.24	1271.79
260.45	1257.45
260.67	1253.36
260.88	1314.80
261.10	1185.77
261.31	1261.55
261.53	1210.35
261.74	1234.93
261.96	1275.88
262.17	1228.78
262.39	1220.59
262.60	1232.88
262.81	1284.08
263.03	1267.69
263.24	1214.45
263.46	1212.40
263.67	1222.64
263.89	1243.12
264.10	1247.21
264.32	1273.84
264.53	1251.31
264.75	1277.93
264.96	1218.54
265.17	1230.83
265.39	1243.12
265.60	1239.02
265.82	1286.12
266.03	1312.75
266.25	1314.80
266.46	1265.64
266.68	1267.69
266.89	1277.93
267.10	1177.58
267.32	1171.44
267.53	1257.45
267.75	1177.58
267.96	1269.74
268.18	1277.93
268.39	1269.74
268.61	1296.36
268.82	1134.57
269.03	1177.58
269.25	1236.97
269.46	1232.88
269.68	1159.15
269.89	1210.35
270.11	1255.40
270.32	1232.88
270.53	1255.40
270.75	1236.97
270.96	1206.25
271.18	1212.40
271.39	1312.75
271.60	1261.55
271.82	1279.98
272.03	1247.21
272.25	1228.78
272.46	1189.87
272.68	1181.68
272.89	1193.97
273.10	1241.07
273.32	1228.78
273.53	1193.97
273.75	1153.01
273.96	1236.97
274.17	1230.83
274.39	1310.70
274.60	1279.98
274.82	1302.51
275.03	1333.23
275.24	1202.16
275.46	1222.64
275.67	1300.46
275.89	1210.35
276.10	1331.18
276.31	1329.13
276.53	1214.45
276.74	1236.97
276.96	1218.54
277.17	1157.10
277.38	1247.21
277.60	1214.45
277.81	1196.01
278.02	1232.88
278.24	1245.16
278.45	1214.45
278.67	1177.58
278.88	1277.93
279.09	1206.25
279.31	1165.29
279.52	1271.79
279.73	1202.16
279.95	1185.77
280.16	1200.11
280.38	1267.69
280.59	1206.25
280.80	1241.07
281.02	1206.25
281.23	1208.30
281.44	1173.49
281.66	1198.06
281.87	1177.58
282.09	1187.82
282.30	1292.27
282.51	1220.59
282.73	1284.08
282.94	1214.45
283.15	1259.50
283.37	1228.78
283.58	1269.74
283.79	1187.82
284.01	1251.31
284.22	1294.32
284.43	1243.12
284.65	1228.78
284.86	1226.73
285.07	1310.70
285.29	1193.97
285.50	1218.54
285.72	1159.15
285.93	1187.82
286.14	1189.87
286.36	1331.18
286.57	1232.88
286.78	1288.17
287.00	1243.12
287.21	1218.54
287.42	1218.54
287.64	1220.59
287.85	1263.60
288.06	1191.92
288.28	1232.88
288.49	1214.45
288.70	1228.78
288.92	1298.41
289.13	1302.51
289.34	1247.21
289.56	1282.03
289.77	1243.12
289.98	1259.50
290.19	1212.40
290.41	1273.84
290.62	1159.15
290.83	1228.78
291.05	1148.91
291.26	1265.64
291.47	1202.16
291.69	1269.74
291.90	1206.25
292.11	1267.69
292.33	1241.07
292.54	1210.35
292.75	1228.78
292.97	1243.12
293.18	1198.06
293.39	1265.64
293.60	1196.01
293.82	1271.79
294.03	1228.78
294.24	1173.49
294.46	1243.12
294.67	1208.30
294.88	1228.78
295.10	1232.88
295.31	1169.39
295.52	1183.73
295.73	1146.86
295.95	1216.49
296.16	1210.35
296.37	1224.69
296.59	1230.83
296.80	1241.07
297.01	1241.07
297.22	1236.97
297.44	1130.48
297.65	1224.69
297.86	1210.35
298.08	1189.87
298.29	1273.84
298.50	1243.12
298.71	1230.83
298.93	1251.31
299.14	1265.64
299.35	1247.21
299.56	1241.07
299.78	1316.84
299.99	1245.16
300.20	1171.44
300.42	1204.21
300.63	1308.65
300.84	1310.70
301.05	1249.26
301.27	1236.97
301.48	1185.77
301.69	1288.17
301.90	1200.11
302.12	1116.14
302.33	1345.52
302.54	1234.93
302.75	1263.60
302.97	1230.83
303.18	1265.64
303.39	1210.35
303.60	1247.21
303.82	1261.55
304.03	1345.52
304.24	1187.82
304.45	1187.82
304.67	1271.79
304.88	1236.97
305.09	1214.45
305.30	1198.06
305.52	1212.40
305.73	1284.08
305.94	1232.88
306.15	1255.40
306.37	1239.02
306.58	1236.97
306.79	1230.83
307.00	1277.93
307.22	1204.21
307.43	1210.35
307.64	1263.60
307.85	1236.97
308.06	1222.64
308.28	1284.08
308.49	1230.83
308.70	1181.68
308.91	1245.16
309.13	1284.08
309.34	1245.16
309.55	1277.93
309.76	1261.55
309.97	1259.50
310.19	1181.68
310.40	1224.69
310.61	1189.87
310.82	1185.77
311.04	1181.68
311.25	1271.79
311.46	1241.07
311.67	1251.31
311.88	1288.17
312.10	1236.97
312.31	1234.93
312.52	1230.83
312.73	1263.60
312.94	1228.78
313.16	1284.08
313.37	1218.54
313.58	1196.01
313.79	1196.01
314.00	1169.39
314.22	1202.16
314.43	1214.45
314.64	1202.16
314.85	1216.49
315.06	1241.07
315.27	1271.79
315.49	1261.55
315.70	1179.63
315.91	1245.16
316.12	1191.92
316.33	1298.41
316.55	1271.79
316.76	1206.25
316.97	1148.91
317.18	1243.12
317.39	1249.26
317.60	1335.28
317.82	1153.01
318.03	1181.68
318.24	1234.93
318.45	1288.17
318.66	1273.84
318.88	1173.49
319.09	1202.16
319.30	1290.22
319.51	1298.41
319.72	1257.45
319.93	1202.16
320.15	1175.53
320.36	1224.69
320.57	1275.88
320.78	1290.22
320.99	1300.46
321.20	1284.08
321.41	1224.69
321.63	1204.21
321.84	1220.59
322.05	1236.97
322.26	1312.75
322.47	1224.69
322.68	1255.40
322.90	1241.07
323.11	1253.36
323.32	1144.81
323.53	1245.16
323.74	1245.16
323.95	1198.06
324.16	1279.98
324.38	1302.51
324.59	1308.65
324.80	1228.78
325.01	1157.10
325.22	1320.94
325.43	1241.07
325.64	1273.84
325.85	1277.93
326.07	1161.20
326.28	1185.77
326.49	1210.35
326.70	1239.02
326.91	1279.98
327.12	1312.75
327.33	1236.97
327.54	1267.69
327.76	1271.79
327.97	1265.64
328.18	1277.93
328.39	1241.07
328.60	1230.83
328.81	1165.29
329.02	1296.36
329.23	1142.77
329.45	1212.40
329.66	1294.32
329.87	1279.98
330.08	1341.42
330.29	1198.06
330.50	1257.45
330.71	1247.21
330.92	1253.36
331.13	1253.36
331.34	1282.03
331.56	1181.68
331.77	1212.40
331.98	1255.40
332.19	1251.31
332.40	1218.54
332.61	1173.49
332.82	1220.59
333.03	1218.54
333.24	1265.64
333.45	1269.74
333.67	1226.73
333.88	1206.25
334.09	1208.30
334.30	1232.88
334.51	1265.64
334.72	1263.60
334.93	1163.25
335.14	1230.83
335.35	1282.03
335.56	1228.78
335.77	1177.58
335.98	1300.46
336.19	1222.64
336.41	1236.97
336.62	1296.36
336.83	1212.40
337.04	1282.03
337.25	1226.73
337.46	1257.45
337.67	1267.69
337.88	1245.16
338.09	1185.77
338.30	1216.49
338.51	1200.11
338.72	1187.82
338.93	1234.93
339.14	1300.46
339.35	1269.74
339.57	1206.25
339.78	1218.54
339.99	1222.64
340.20	1273.84
340.41	1234.93
340.62	1294.32
340.83	1288.17
341.04	1286.12
341.25	1243.12
341.46	1286.12
341.67	1208.30
341.88	1255.40
342.09	1218.54
342.30	1196.01
342.51	1214.45
342.72	1212.40
342.93	1179.63
343.14	1265.64
343.35	1222.64
343.56	1193.97
343.77	1185.77
343.98	1206.25
344.19	1308.65
344.41	1234.93
344.62	1173.49
344.83	1165.29
345.04	1241.07
345.25	1230.83
345.46	1245.16
345.67	1136.62
345.88	1275.88
346.09	1208.30
346.30	1236.97
346.51	1265.64
346.72	1165.29
346.93	1267.69
347.14	1241.07
347.35	1189.87
347.56	1230.83
347.77	1189.87
347.98	1259.50
348.19	1200.11
348.40	1222.64
348.61	1318.89
348.82	1228.78
349.03	1214.45
349.24	1157.10
349.45	1222.64
349.66	1253.36
349.87	1271.79
350.08	1279.98
350.29	1241.07
350.50	1155.05
350.71	1259.50
350.92	1220.59
351.13	1234.93
351.34	1226.73
351.55	1294.32
351.76	1245.16
351.97	1286.12
352.18	1202.16
352.39	1146.86
352.60	1228.78
352.81	1267.69
353.02	1245.16
353.23	1218.54
353.44	1189.87
353.65	1251.31
353.86	1343.47
354.07	1249.26
354.28	1210.35
354.49	1153.01
354.70	1232.88
354.90	1314.80
355.11	1189.87
355.32	1314.80
355.53	1212.40
355.74	1206.25
355.95	1253.36
356.16	1191.92
356.37	1249.26
356.58	1167.34
356.79	1228.78
357.00	1292.27
357.21	1243.12
357.42	1241.07
357.63	1216.49
357.84	1212.40
358.05	1236.97
358.26	1218.54
358.47	1226.73
358.68	1269.74
358.89	1228.78
359.10	1273.84
359.31	1220.59
359.52	1181.68
359.73	1261.55
359.93	1171.44
360.14	1267.69
360.35	1185.77
360.56	1200.11
360.77	1202.16
360.98	1335.28
361.19	1249.26
361.40	1273.84
361.61	1200.11
361.82	1284.08
362.03	1187.82
362.24	1202.16
362.45	1253.36
362.66	1228.78
362.87	1181.68
363.07	1279.98
363.28	1247.21
363.49	1300.46
363.70	1224.69
363.91	1257.45
364.12	1189.87
364.33	1265.64
364.54	1271.79
364.75	1298.41
364.96	1286.12
365.17	1245.16
365.38	1183.73
365.58	1200.11
365.79	1241.07
366.00	1271.79
366.21	1251.31
366.42	1198.06
366.63	1232.88
366.84	1265.64
367.05	1228.78
367.26	1329.13
367.47	1171.44
367.67	1220.59
367.88	1193.97
368.09	1265.64
368.30	1255.40
368.51	1282.03
368.72	1253.36
368.93	1247.21
369.14	1275.88
369.35	1333.23
369.56	1302.51
369.76	1267.69
369.97	1284.08
370.18	1300.46
370.39	1202.16
370.60	1224.69
370.81	1232.88
371.02	1243.12
371.23	1269.74
371.43	1251.31
371.64	1275.88
371.85	1228.78
372.06	1206.25
372.27	1210.35
372.48	1259.50
372.69	1241.07
372.90	1273.84
373.10	1216.49
373.31	1288.17
373.52	1249.26
373.73	1253.36
373.94	1259.50
374.15	1265.64
374.36	1161.20
374.56	1208.30
374.77	1282.03
374.98	1308.65
375.19	1224.69
375.40	1159.15
375.61	1259.50
375.82	1224.69
376.02	1251.31
376.23	1222.64
376.44	1269.74
376.65	1204.21
376.86	1157.10
377.07	1236.97
377.28	1267.69
377.48	1232.88
377.69	1292.27
377.90	1232.88
378.11	1239.02
378.32	1183.73
378.53	1230.83
378.73	1222.64
378.94	1277.93
379.15	1230.83
379.36	1243.12
379.57	1282.03
379.78	1212.40
379.98	1175.53
380.19	1228.78
380.40	1290.22
380.61	1159.15
380.82	1255.40
381.03	1277.93
381.23	1099.76
381.44	1228.78
381.65	1173.49
381.86	1292.27
382.07	1204.21
382.27	1263.60
382.48	1157.10
382.69	1294.32
382.90	1261.55
383.11	1241.07
383.32	1290.22
383.52	1294.32
383.73	1302.51
383.94	1284.08
384.15	1236.97
384.36	1224.69
384.56	1181.68
384.77	1271.79
384.98	1253.36
385.19	1247.21
385.40	1273.84
385.60	1290.22
385.81	1220.59
386.02	1269.74
386.23	1230.83
386.43	1247.21
386.64	1322.99
386.85	1245.16
387.06	1171.44
387.27	1236.97
387.47	1183.73
387.68	1261.55
387.89	1269.74
388.10	1226.73
388.31	1230.83
388.51	1241.07
388.72	1230.83
388.93	1234.93
389.14	1259.50
389.34	1243.12
389.55	1224.69
389.76	1177.58
389.97	1292.27
390.18	1136.62
390.38	1300.46
390.59	1273.84
390.80	1175.53
391.01	1288.17
391.21	1234.93
391.42	1275.88
391.63	1230.83
391.84	1245.16
392.04	1187.82
392.25	1228.78
392.46	1263.60
392.67	1257.45
392.87	1241.07
393.08	1218.54
393.29	1290.22
393.50	1196.01
393.70	1220.59
393.91	1169.39
394.12	1265.64
394.33	1191.92
394.53	1224.69
394.74	1206.25
394.95	1214.45
395.16	1206.25
395.36	1208.30
395.57	1202.16
395.78	1265.64
395.99	1228.78
396.19	1185.77
396.40	1212.40
396.61	1163.25
396.81	1155.05
397.02	1249.26
397.23	1275.88
397.44	1284.08
397.64	1218.54
397.85	1226.73
398.06	1163.25
398.27	1146.86
398.47	1259.50
398.68	1253.36
398.89	1290.22
399.09	1191.92
399.30	1230.83
399.51	1210.35
399.72	1206.25
399.92	1165.29
400.13	1218.54
400.34	1132.53
400.54	1224.69
400.75	1222.64
400.96	1282.03
401.17	1210.35
401.37	1239.02
401.58	1249.26
401.79	1212.40
401.99	1269.74
402.20	1198.06
402.41	1187.82
402.61	1273.84
402.82	1239.02
403.03	1329.13
403.24	1204.21
403.44	1198.06
403.65	1204.21
403.86	1243.12
404.06	1294.32
404.27	1202.16
404.48	1171.44
404.68	1294.32
404.89	1312.75
405.10	1191.92
405.30	1222.64
405.51	1247.21
405.72	1245.16
405.92	1230.83
406.13	1234.93
406.34	1329.13
406.54	1239.02
406.75	1263.60
406.96	1226.73
407.16	1155.05
407.37	1267.69
407.58	1322.99
407.78	1208.30
407.99	1163.25
408.20	1202.16
408.40	1249.26
408.61	1212.40
408.82	1255.40
409.02	1267.69
409.23	1212.40
409.44	1288.17
409.64	1261.55
409.85	1255.40
410.06	1167.34
410.26	1230.83
410.47	1187.82
410.68	1261.55
410.88	1208.30
411.09	1247.21
411.30	1226.73
411.50	1282.03
411.71	1249.26
411.91	1214.45
412.12	1257.45
412.33	1218.54
412.53	1300.46
412.74	1208.30
412.95	1269.74
413.15	1206.25
413.36	1212.40
413.57	1204.21
413.77	1218.54
413.98	1208.30
414.18	1249.26
414.39	1222.64
414.60	1325.04
414.80	1247.21
415.01	1214.45
415.22	1220.59
415.42	1169.39
415.63	1300.46
415.83	1236.97
416.04	1261.55
416.25	1196.01
416.45	1210.35
416.66	1226.73
416.86	1245.16
417.07	1204.21
417.28	1216.49
417.48	1216.49
417.69	1241.07
417.89	1263.60
418.10	1275.88
418.31	1245.16
418.51	1220.59
418.72	1228.78
418.92	1284.08
419.13	1198.06
419.34	1236.97
419.54	1282.03
419.75	1200.11
419.95	1300.46
420.16	1261.55
420.37	1218.54
420.57	1202.16
420.78	1193.97
420.98	1245.16
421.19	1224.69
421.40	1292.27
421.60	1187.82
421.81	1239.02
422.01	1294.32
422.22	1230.83
422.42	1273.84
422.63	1157.10
422.84	1255.40
423.04	1273.84
423.25	1255.40
423.45	1230.83
423.66	1183.73
423.86	1187.82
424.07	1300.46
424.28	1210.35
424.48	1198.06
424.69	1253.36
424.89	1263.60
425.10	1226.73
425.30	1214.45
425.51	1189.87
425.72	1275.88
425.92	1234.93
426.13	1187.82
426.33	1187.82
426.54	1226.73
426.74	1232.88
426.95	1259.50
427.15	1234.93
427.36	1257.45
427.56	1126.38
427.77	1173.49
427.98	1202.16
428.18	1183.73
428.39	1255.40
428.59	1275.88
428.80	1212.40
429.00	1267.69
429.21	1224.69
429.41	1234.93
429.62	1255.40
429.82	1269.74
430.03	1255.40
430.23	1191.92
430.44	1200.11
430.65	1183.73
430.85	1241.07
431.06	1187.82
431.26	1222.64
431.47	1210.35
431.67	1222.64
431.88	1247.21
432.08	1187.82
432.29	1161.20
432.49	1226.73
432.70	1259.50
432.90	1249.26
433.11	1316.84
433.31	1261.55
433.52	1163.25
433.72	1230.83
433.93	1257.45
434.13	1216.49
434.34	1142.77
434.54	1171.44
434.75	1155.05
434.95	1179.63
435.16	1212.40
435.36	1230.83
435.57	1212.40
435.77	1206.25
435.98	1224.69
436.18	1226.73
436.39	1228.78
436.59	1253.36
436.80	1146.86
437.00	1138.67
437.21	1206.25
437.41	1177.58
437.62	1245.16
437.82	1177.58
438.03	1214.45
438.23	1267.69
438.44	1218.54
438.64	1234.93
438.85	1230.83
439.05	1263.60
439.25	1202.16
439.46	1239.02
439.66	1261.55
439.87	1220.59
440.07	1259.50
440.28	1148.91
440.48	1196.01
440.69	1277.93
440.89	1198.06
441.10	1216.49
441.30	1247.21
441.51	1269.74
441.71	1222.64
441.92	1218.54
442.12	1198.06
442.32	1224.69
442.53	1275.88
442.73	1208.30
442.94	1198.06
443.14	1226.73
443.35	1269.74
443.55	1279.98
443.76	1236.97
443.96	1181.68
444.16	1232.88
444.37	1241.07
444.57	1228.78
444.78	1222.64
444.98	1243.12
445.19	1241.07
445.39	1206.25
445.60	1193.97
445.80	1218.54
446.00	1253.36
446.21	1247.21
446.41	1251.31
446.62	1290.22
446.82	1212.40
447.03	1212.40
447.23	1208.30
447.43	1224.69
447.64	1232.88
447.84	1247.21
448.05	1198.06
448.25	1232.88
448.45	1273.84
448.66	1187.82
448.86	1249.26
449.07	1253.36
449.27	1286.12
449.48	1296.36
449.68	1230.83
449.88	1279.98
450.09	1218.54
450.29	1224.69
450.50	1241.07
450.70	1247.21
450.90	1196.01
451.11	1228.78
451.31	1251.31
451.52	1198.06
451.72	1196.01
451.92	1222.64
452.13	1271.79
452.33	1245.16
452.54	1208.30
452.74	1234.93
452.94	1284.08
453.15	1202.16
453.35	1187.82
453.55	1279.98
453.76	1232.88
453.96	1241.07
454.17	1263.60
454.37	1181.68
454.57	1255.40
454.78	1255.40
454.98	1204.21
455.19	1189.87
455.39	1173.49
455.59	1216.49
455.80	1236.97
456.00	1224.69
456.20	1206.25
456.41	1226.73
456.61	1294.32
456.81	1296.36
457.02	1226.73
457.22	1206.25
457.43	1146.86
457.63	1259.50
457.83	1196.01
458.04	1273.84
458.24	1261.55
458.44	1263.60
458.65	1226.73
458.85	1196.01
459.05	1245.16
459.26	1236.97
459.46	1282.03
459.66	1298.41
459.87	1243.12
460.07	1255.40
460.27	1234.93
460.48	1259.50
460.68	1265.64
460.88	1214.45
461.09	1243.12
461.29	1206.25
461.49	1271.79
461.70	1359.85
461.90	1136.62
462.10	1220.59
462.31	1140.72
462.51	1214.45
462.71	1314.80
462.92	1263.60
463.12	1224.69
463.32	1232.88
463.53	1288.17
463.73	1277.93
463.93	1228.78
464.14	1206.25
464.34	1241.07
464.54	1187.82
464.75	1196.01
464.95	1224.69
465.15	1228.78
465.36	1286.12
465.56	1179.63
465.76	1265.64
465.96	1255.40
466.17	1202.16
466.37	1222.64
466.57	1273.84
466.78	1224.69
466.98	1234.93
467.18	1261.55
467.39	1232.88
467.59	1206.25
467.79	1292.27
467.99	1230.83
468.20	1232.88
468.40	1216.49
468.60	1312.75
468.81	1304.56
469.01	1193.97
469.21	1187.82
469.41	1185.77
469.62	1236.97
469.82	1222.64
470.02	1220.59
470.23	1261.55
470.43	1236.97
470.63	1232.88
470.83	1241.07
471.04	1263.60
471.24	1232.88
471.44	1179.63
471.65	1216.49
471.85	1241.07
472.05	1249.26
472.25	1232.88
472.46	1175.53
472.66	1232.88
472.86	1282.03
473.06	1259.50
473.27	1306.60
473.47	1234.93
473.67	1257.45
473.87	1263.60
474.08	1189.87
474.28	1253.36
474.48	1310.70
474.68	1239.02
474.89	1265.64
475.09	1210.35
475.29	1212.40
475.49	1196.01
475.70	1142.77
475.90	1304.56
476.10	1198.06
476.30	1224.69
476.51	1269.74
476.71	1200.11
476.91	1155.05
477.11	1171.44
477.32	1224.69
477.52	1247.21
477.72	1277.93
477.92	1234.93
478.12	1208.30
478.33	1218.54
478.53	1337.32
478.73	1193.97
478.93	1208.30
479.14	1167.34
479.34	1222.64
479.54	1294.32
479.74	1228.78
479.94	1228.78
480.15	1169.39
480.35	1187.82
480.55	1253.36
480.75	1228.78
480.96	1247.21
481.16	1341.42
481.36	1198.06
481.56	1173.49
481.76	1257.45
481.97	1230.83
482.17	1206.25
482.37	1146.86
482.57	1259.50
482.77	1208.30
482.98	1241.07
483.18	1243.12
483.38	1243.12
483.58	1210.35
483.78	1261.55
483.98	1286.12
484.19	1290.22
484.39	1232.88
484.59	1261.55
484.79	1292.27
484.99	1214.45
485.20	1277.93
485.40	1279.98
485.60	1282.03
485.80	1232.88
486.00	1310.70
486.20	1220.59
486.41	1226.73
486.61	1249.26
486.81	1245.16
487.01	1222.64
487.21	1282.03
487.42	1255.40
487.62	1251.31
487.82	1239.02
488.02	1300.46
488.22	1257.45
488.42	1236.97
488.62	1304.56
488.83	1263.60
489.03	1273.84
489.23	1204.21
489.43	1177.58
489.63	1265.64
489.83	1318.89
490.04	1259.50
490.24	1265.64
490.44	1171.44
490.64	1208.30
490.84	1222.64
491.04	1288.17
491.24	1230.83
491.45	1267.69
491.65	1222.64
491.85	1208.30
492.05	1218.54
492.25	1275.88
492.45	1220.59
492.65	1206.25
492.86	1208.30
493.06	1226.73
493.26	1204.21
493.46	1322.99
493.66	1236.97
493.86	1306.60
494.06	1288.17
494.26	1245.16
494.47	1243.12
494.67	1230.83
494.87	1300.46
495.07	1263.60
495.27	1222.64
495.47	1243.12
495.67	1288.17
495.87	1202.16
496.07	1263.60
496.28	1193.97
496.48	1236.97
496.68	1288.17
496.88	1212.40
497.08	1282.03
497.28	1302.51
497.48	1286.12
497.68	1284.08
497.88	1269.74
498.08	1265.64
498.29	1267.69
498.49	1210.35
498.69	1187.82
498.89	1230.83
499.09	1206.25
499.29	1236.97
499.49	1241.07
499.69	1284.08
499.89	1173.49
500.09	1181.68
500.29	1257.45
500.50	1200.11
500.70	1136.62
500.90	1234.93
501.10	1249.26
501.30	1269.74
501.50	1230.83
501.70	1257.45
501.90	1208.30
502.10	1220.59
502.30	1255.40
502.50	1210.35
502.70	1279.98
502.90	1249.26
503.10	1206.25
503.31	1271.79
503.51	1292.27
503.71	1359.85
503.91	1265.64
504.11	1288.17
504.31	1257.45
504.51	1232.88
504.71	1279.98
504.91	1198.06
505.11	1185.77
505.31	1171.44
505.51	1138.67
505.71	1191.92
505.91	1255.40
506.11	1273.84
506.31	1175.53
506.51	1216.49
506.71	1177.58
506.91	1218.54
507.11	1302.51
507.31	1269.74
507.51	1185.77
507.72	1236.97
507.92	1269.74
508.12	1206.25
508.32	1273.84
508.52	1183.73
508.72	1130.48
508.92	1290.22
509.12	1228.78
509.32	1144.81
509.52	1263.60
509.72	1214.45
509.92	1243.12
510.12	1177.58
510.32	1366.00
510.52	1271.79
510.72	1220.59
510.92	1241.07
511.12	1228.78
511.32	1245.16
511.52	1314.80
511.72	1308.65
511.92	1234.93
512.12	1302.51
512.32	1193.97
512.52	1271.79
512.72	1255.40
512.92	1214.45
513.12	1251.31
513.32	1273.84
513.52	1290.22
513.72	1257.45
513.92	1255.40
514.12	1222.64
514.32	1232.88
514.52	1228.78
514.72	1187.82
514.92	1187.82
515.12	1208.30
515.32	1255.40
515.52	1290.22
515.72	1249.26
515.92	1222.64
516.12	1226.73
516.32	1230.83
516.52	1251.31
516.72	1249.26
516.92	1265.64
517.12	1208.30
517.32	1234.93
517.51	1234.93
517.71	1232.88
517.91	1251.31
518.11	1228.78
518.31	1257.45
518.51	1288.17
518.71	1284.08
518.91	1335.28
519.11	1212.40
519.31	1341.42
519.51	1245.16
519.71	1239.02
519.91	1234.93
520.11	1251.31
520.31	1279.98
520.51	1220.59
520.71	1273.84
520.91	1370.09
521.11	1206.25
521.31	1255.40
521.51	1239.02
521.70	1261.55
521.90	1245.16
522.10	1218.54
522.30	1216.49
522.50	1302.51
522.70	1241.07
522.90	1206.25
523.10	1198.06
523.30	1255.40
523.50	1220.59
523.70	1226.73
523.90	1214.45
524.10	1216.49
524.30	1167.34
524.49	1224.69
524.69	1243.12
524.89	1265.64
525.09	1247.21
525.29	1302.51
525.49	1239.02
525.69	1241.07
525.89	1228.78
526.09	1234.93
526.29	1275.88
526.49	1253.36
526.68	1220.59
526.88	1306.60
527.08	1386.47
527.28	1226.73
527.48	1275.88
527.68	1257.45
527.88	1157.10
528.08	1339.37
528.28	1206.25
528.48	1214.45
528.67	1296.36
528.87	1259.50
529.07	1339.37
529.27	1269.74
529.47	1216.49
529.67	1296.36
529.87	1255.40
530.07	1255.40
530.26	1265.64
530.46	1292.27
530.66	1257.45
530.86	1251.31
531.06	1294.32
531.26	1210.35
531.46	1271.79
531.66	1298.41
531.85	1292.27
532.05	1271.79
532.25	1261.55
532.45	1267.69
532.65	1279.98
532.85	1218.54
533.05	1206.25
533.25	1241.07
533.44	1241.07
533.64	1255.40
533.84	1257.45
534.04	1267.69
534.24	1243.12
534.44	1310.70
534.63	1228.78
534.83	1314.80
535.03	1277.93
535.23	1249.26
535.43	1198.06
535.63	1310.70
535.83	1300.46
536.02	1263.60
536.22	1208.30
536.42	1284.08
536.62	1249.26
536.82	1327.08
537.02	1271.79
537.21	1277.93
537.41	1345.52
537.61	1279.98
537.81	1267.69
538.01	1308.65
538.21	1304.56
538.40	1329.13
538.60	1273.84
538.80	1286.12
539.00	1306.60
539.20	1325.04
539.39	1331.18
539.59	1345.52
539.79	1312.75
539.99	1351.66
540.19	1374.19
540.39	1314.80
540.58	1374.19
540.78	1394.67
540.98	1341.42
541.18	1433.58
541.38	1429.48
541.57	1437.67
541.77	1460.20
541.97	1447.91
542.17	1445.87
542.37	1484.78
542.56	1427.43
542.76	1538.02
542.96	1521.64
543.16	1431.53
543.35	1486.83
543.55	1480.68
543.75	1554.41
543.95	1556.46
544.15	1484.78
544.34	1544.17
544.54	1538.02
544.74	1515.50
544.94	1546.22
545.14	1468.39
545.33	1484.78
545.53	1466.35
545.73	1497.07
545.93	1435.63
546.12	1437.67
546.32	1441.77
546.52	1474.54
546.72	1392.62
546.91	1380.33
547.11	1419.24
547.31	1363.95
547.51	1454.06
547.70	1378.28
547.90	1316.84
548.10	1331.18
548.30	1378.28
548.50	1343.47
548.69	1322.99
548.89	1325.04
549.09	1341.42
549.29	1400.81
549.48	1271.79
549.68	1308.65
549.88	1302.51
550.07	1347.56
550.27	1318.89
550.47	1322.99
550.67	1318.89
550.86	1339.37
551.06	1308.65
551.26	1310.70
551.46	1390.57
551.65	1388.52
551.85	1349.61
552.05	1320.94
552.25	1380.33
552.44	1361.90
552.64	1347.56
552.84	1275.88
553.03	1376.24
553.23	1290.22
553.43	1265.64
553.63	1318.89
553.82	1277.93
554.02	1286.12
554.22	1300.46
554.41	1331.18
554.61	1337.32
554.81	1327.08
555.01	1255.40
555.20	1259.50
555.40	1286.12
555.60	1300.46
555.79	1329.13
555.99	1261.55
556.19	1366.00
556.38	1275.88
556.58	1347.56
556.78	1245.16
556.98	1368.04
557.17	1267.69
557.37	1279.98
557.57	1286.12
557.76	1294.32
557.96	1286.12
558.16	1288.17
558.35	1251.31
558.55	1230.83
558.75	1259.50
558.94	1316.84
559.14	1259.50
559.34	1331.18
559.53	1249.26
559.73	1259.50
559.93	1316.84
560.12	1312.75
560.32	1261.55
560.52	1288.17
560.71	1374.19
560.91	1294.32
561.11	1325.04
561.30	1302.51
561.50	1314.80
561.70	1269.74
561.89	1304.56
562.09	1325.04
562.29	1304.56
562.48	1279.98
562.68	1304.56
562.88	1228.78
563.07	1263.60
563.27	1232.88
563.47	1282.03
563.66	1343.47
563.86	1286.12
564.06	1318.89
564.25	1263.60
564.45	1288.17
564.64	1304.56
564.84	1337.32
565.04	1347.56
565.23	1351.66
565.43	1236.97
565.63	1253.36
565.82	1288.17
566.02	1249.26
566.22	1296.36
566.41	1271.79
566.61	1302.51
566.80	1286.12
567.00	1308.65
567.20	1245.16
567.39	1306.60
567.59	1331.18
567.78	1224.69
567.98	1312.75
568.18	1230.83
568.37	1247.21
568.57	1259.50
568.77	1390.57
568.96	1286.12
569.16	1255.40
569.35	1282.03
569.55	1318.89
569.75	1306.60
569.94	1296.36
570.14	1368.04
570.33	1366.00
570.53	1333.23
570.73	1322.99
570.92	1318.89
571.12	1306.60
571.31	1288.17
571.51	1310.70
571.71	1288.17
571.90	1361.90
572.10	1292.27
572.29	1312.75
572.49	1292.27
572.68	1413.10
572.88	1249.26
573.08	1335.28
573.27	1296.36
573.47	1261.55
573.66	1294.32
573.86	1368.04
574.05	1341.42
574.25	1232.88
574.45	1306.60
574.64	1359.85
574.84	1318.89
575.03	1310.70
575.23	1351.66
575.42	1384.43
575.62	1378.28
575.82	1304.56
576.01	1298.41
576.21	1335.28
576.40	1355.76
576.60	1322.99
576.79	1253.36
576.99	1265.64
577.18	1366.00
577.38	1415.15
577.57	1292.27
577.77	1388.52
577.97	1337.32
578.16	1320.94
578.36	1370.09
578.55	1411.05
578.75	1345.52
578.94	1351.66
579.14	1300.46
579.33	1388.52
579.53	1345.52
579.72	1404.91
579.92	1396.71
580.11	1357.80
580.31	1370.09
580.50	1337.32
580.70	1331.18
580.90	1396.71
581.09	1392.62
581.29	1390.57
581.48	1335.28
581.68	1359.85
581.87	1415.15
582.07	1435.63
582.26	1226.73
582.46	1363.95
582.65	1355.76
582.85	1351.66
583.04	1433.58
583.24	1415.15
583.43	1406.95
583.63	1335.28
583.82	1394.67
584.02	1425.39
584.21	1312.75
584.41	1372.14
584.60	1351.66
584.80	1384.43
584.99	1378.28
585.19	1318.89
585.38	1351.66
585.58	1363.95
585.77	1370.09
585.97	1388.52
586.16	1388.52
586.35	1378.28
586.55	1390.57
586.74	1390.57
586.94	1419.24
587.13	1351.66
587.33	1359.85
587.52	1335.28
587.72	1368.04
587.91	1275.88
588.11	1378.28
588.30	1359.85
588.50	1357.80
588.69	1347.56
588.89	1306.60
589.08	1329.13
589.28	1370.09
589.47	1347.56
589.66	1282.03
589.86	1320.94
590.05	1390.57
590.25	1329.13
590.44	1337.32
590.64	1380.33
590.83	1335.28
591.03	1347.56
591.22	1302.51
591.41	1380.33
591.61	1366.00
591.80	1347.56
592.00	1374.19
592.19	1361.90
592.39	1343.47
592.58	1409.00
592.78	1368.04
592.97	1429.48
593.16	1314.80
593.36	1380.33
593.55	1355.76
593.75	1361.90
593.94	1265.64
594.14	1251.31
594.33	1290.22
594.52	1273.84
594.72	1277.93
594.91	1368.04
595.11	1357.80
595.30	1239.02
595.49	1329.13
595.69	1310.70
595.88	1308.65
596.08	1298.41
596.27	1302.51
596.47	1390.57
596.66	1327.08
596.85	1261.55
597.05	1269.74
597.24	1366.00
597.44	1288.17
597.63	1380.33
597.82	1372.14
598.02	1376.24
598.21	1327.08
598.40	1390.57
598.60	1404.91
598.79	1300.46
598.99	1312.75
599.18	1333.23
599.37	1310.70
599.57	1386.47
599.76	1273.84
599.96	1353.71
600.15	1296.36
600.34	1374.19
600.54	1335.28
600.73	1273.84
600.92	1257.45
601.12	1378.28
601.31	1384.43
601.51	1345.52
601.70	1294.32
601.89	1339.37
602.09	1255.40
602.28	1271.79
602.47	1333.23
602.67	1294.32
602.86	1310.70
603.05	1296.36
603.25	1275.88
603.44	1384.43
603.63	1241.07
603.83	1345.52
604.02	1296.36
604.22	1353.71
604.41	1335.28
604.60	1316.84
604.80	1345.52
604.99	1339.37
605.18	1325.04
605.38	1341.42
605.57	1355.76
605.76	1388.52
605.96	1370.09
606.15	1394.67
606.34	1333.23
606.54	1335.28
606.73	1302.51
606.92	1368.04
607.12	1275.88
607.31	1345.52
607.50	1247.21
607.70	1320.94
607.89	1322.99
608.08	1396.71
608.28	1363.95
608.47	1282.03
608.66	1329.13
608.85	1327.08
609.05	1443.82
609.24	1322.99
609.43	1386.47
609.63	1484.78
609.82	1488.87
610.01	1507.30
610.21	1542.12
610.40	1570.79
610.59	1505.26
610.79	1611.75
610.98	1538.02
611.17	1556.46
611.36	1515.50
611.56	1529.83
611.75	1503.21
611.94	1474.54
612.14	1443.82
612.33	1419.24
612.52	1376.24
612.71	1427.43
612.91	1341.42
613.10	1413.10
613.29	1452.01
613.49	1380.33
613.68	1441.77
613.87	1366.00
614.06	1409.00
614.26	1322.99
614.45	1261.55
614.64	1347.56
614.83	1384.43
615.03	1316.84
615.22	1378.28
615.41	1413.10
615.60	1314.80
615.80	1339.37
615.99	1351.66
616.18	1312.75
616.38	1288.17
616.57	1386.47
616.76	1263.60
616.95	1359.85
617.15	1269.74
617.34	1298.41
617.53	1218.54
617.72	1341.42
617.92	1298.41
618.11	1267.69
618.30	1380.33
618.49	1351.66
618.68	1294.32
618.88	1331.18
619.07	1392.62
619.26	1314.80
619.45	1384.43
619.65	1343.47
619.84	1296.36
620.03	1312.75
620.22	1355.76
620.42	1279.98
620.61	1300.46
620.80	1304.56
620.99	1292.27
621.18	1300.46
621.38	1361.90
621.57	1302.51
621.76	1312.75
621.95	1265.64
622.15	1357.80
622.34	1409.00
622.53	1366.00
622.72	1316.84
622.91	1265.64
623.11	1384.43
623.30	1366.00
623.49	1345.52
623.68	1335.28
623.87	1370.09
624.07	1331.18
624.26	1366.00
624.45	1331.18
624.64	1300.46
624.83	1304.56
625.03	1335.28
625.22	1310.70
625.41	1376.24
625.60	1292.27
625.79	1347.56
625.98	1331.18
626.18	1279.98
626.37	1359.85
626.56	1327.08
626.75	1251.31
626.94	1320.94
627.14	1337.32
627.33	1310.70
627.52	1282.03
627.71	1267.69
627.90	1267.69
628.09	1355.76
628.29	1284.08
628.48	1255.40
628.67	1284.08
628.86	1304.56
629.05	1277.93
629.24	1308.65
629.43	1247.21
629.63	1314.80
629.82	1290.22
630.01	1327.08
630.20	1304.56
630.39	1300.46
630.58	1312.75
630.78	1292.27
630.97	1267.69
631.16	1277.93
631.35	1257.45
631.54	1331.18
631.73	1245.16
631.92	1335.28
632.11	1263.60
632.31	1216.49
632.50	1257.45
632.69	1300.46
632.88	1263.60
633.07	1290.22
633.26	1325.04
633.45	1314.80
633.65	1345.52
633.84	1271.79
634.03	1286.12
634.22	1245.16
634.41	1298.41
634.60	1249.26
634.79	1243.12
634.98	1232.88
635.17	1300.46
635.37	1310.70
635.56	1267.69
635.75	1179.63
635.94	1277.93
636.13	1325.04
636.32	1355.76
636.51	1322.99
636.70	1191.92
636.89	1406.95
637.08	1202.16
637.28	1304.56
637.47	1181.68
637.66	1290.22
637.85	1357.80
638.04	1368.04
638.23	1275.88
638.42	1249.26
638.61	1243.12
638.80	1261.55
638.99	1249.26
639.18	1298.41
639.38	1327.08
639.57	1230.83
639.76	1255.40
639.95	1275.88
640.14	1236.97
640.33	1247.21
640.52	1302.51
640.71	1282.03
640.90	1193.97
641.09	1288.17
641.28	1306.60
641.47	1241.07
641.66	1161.20
641.85	1239.02
642.04	1247.21
642.24	1216.49
642.43	1253.36
642.62	1566.70
642.81	1308.65
643.00	1230.83
643.19	1185.77
643.38	1220.59
643.57	1228.78
643.76	1232.88
643.95	1234.93
644.14	1329.13
644.33	1308.65
644.52	1294.32
644.71	1308.65
644.90	1284.08
645.09	1245.16
645.28	1249.26
645.47	1183.73
645.66	1224.69
645.85	1228.78
646.04	1327.08
646.23	1243.12
646.42	1232.88
646.61	1239.02
646.80	1222.64
646.99	1212.40
647.18	1263.60
647.37	1261.55
647.56	1214.45
647.75	1296.36
647.95	1251.31
648.14	1198.06
648.33	1290.22
648.52	1296.36
648.71	1286.12
648.90	1318.89
649.09	1308.65
649.28	1243.12
649.47	1218.54
649.66	1273.84
649.85	1224.69
650.04	1296.36
650.23	1212.40
650.42	1232.88
650.61	1230.83
650.79	1296.36
650.98	1206.25
651.17	1218.54
651.36	1298.41
651.55	1220.59
651.74	1185.77
651.93	1275.88
652.12	1333.23
652.31	1228.78
652.50	1214.45
652.69	1269.74
652.88	1204.21
653.07	1257.45
653.26	1265.64
653.45	1265.64
653.64	1206.25
653.83	1228.78
654.02	1261.55
654.21	1282.03
654.40	1232.88
654.59	1286.12
654.78	1257.45
654.97	1384.43
655.16	1273.84
655.35	1298.41
655.54	1292.27
655.73	1224.69
655.92	1306.60
656.11	1316.84
656.30	1261.55
656.48	1275.88
656.67	1243.12
656.86	1279.98
657.05	1273.84
657.24	1271.79
657.43	1341.42
657.62	1298.41
657.81	1312.75
658.00	1292.27
658.19	1261.55
658.38	1216.49
658.57	1249.26
658.76	1327.08
658.95	1204.21
659.13	1234.93
659.32	1167.34
659.51	1253.36
659.70	1220.59
659.89	1232.88
660.08	1312.75
660.27	1220.59
660.46	1300.46
660.65	1292.27
660.84	1273.84
661.03	1253.36
661.22	1220.59
661.40	1265.64
661.59	1284.08
661.78	1261.55
661.97	1236.97
662.16	1234.93
662.35	1271.79
662.54	1165.29
662.73	1265.64
662.92	1247.21
663.11	1290.22
663.29	1265.64
663.48	1185.77
663.67	1308.65
663.86	1239.02
664.05	1236.97
664.24	1271.79
664.43	1298.41
664.62	1300.46
664.80	1300.46
664.99	1269.74
665.18	1245.16
665.37	1306.60
665.56	1286.12
665.75	1290.22
665.94	1222.64
666.13	1318.89
666.31	1284.08
666.50	1353.71
666.69	1239.02
666.88	1189.87
667.07	1269.74
667.26	1251.31
667.45	1220.59
667.63	1296.36
667.82	1212.40
668.01	1331.18
668.20	1222.64
668.39	1318.89
668.58	1267.69
668.76	1253.36
668.95	1261.55
669.14	1282.03
669.33	1245.16
669.52	1302.51
669.71	1241.07
669.90	1261.55
670.08	1378.28
670.27	1191.92
670.46	1277.93
670.65	1288.17
670.84	1232.88
671.03	1241.07
671.21	1193.97
671.40	1292.27
671.59	1267.69
671.78	1236.97
671.97	1193.97
672.15	1273.84
672.34	1232.88
672.53	1234.93
672.72	1267.69
672.91	1265.64
673.09	1271.79
673.28	1218.54
673.47	1275.88
673.66	1288.17
673.85	1359.85
674.04	1308.65
674.22	1241.07
674.41	1259.50
674.60	1224.69
674.79	1306.60
674.98	1255.40
675.16	1306.60
675.35	1214.45
675.54	1224.69
675.73	1282.03
675.91	1316.84
676.10	1302.51
676.29	1366.00
676.48	1261.55
676.67	1273.84
676.85	1210.35
677.04	1255.40
677.23	1298.41
677.42	1269.74
677.60	1222.64
677.79	1167.34
677.98	1259.50
678.17	1200.11
678.36	1271.79
678.54	1345.52
678.73	1257.45
678.92	1196.01
679.11	1253.36
679.29	1320.94
679.48	1226.73
679.67	1267.69
679.86	1271.79
680.04	1325.04
680.23	1265.64
680.42	1347.56
680.61	1300.46
680.79	1226.73
680.98	1296.36
681.17	1374.19
681.36	1308.65
681.54	1325.04
681.73	1277.93
681.92	1202.16
682.11	1306.60
682.29	1277.93
682.48	1243.12
682.67	1230.83
682.85	1279.98
683.04	1306.60
683.23	1320.94
683.42	1269.74
683.60	1302.51
683.79	1251.31
683.98	1347.56
684.17	1351.66
684.35	1306.60
684.54	1343.47
684.73	1277.93
684.91	1378.28
685.10	1312.75
685.29	1363.95
685.48	1286.12
685.66	1265.64
685.85	1298.41
686.04	1306.60
686.22	1363.95
686.41	1294.32
686.60	1308.65
686.78	1306.60
686.97	1335.28
687.16	1382.38
687.35	1335.28
687.53	1275.88
687.72	1345.52
687.91	1337.32
688.09	1368.04
688.28	1263.60
688.47	1353.71
688.65	1361.90
688.84	1294.32
689.03	1357.80
689.21	1269.74
689.40	1312.75
689.59	1249.26
689.77	1312.75
689.96	1404.91
690.15	1308.65
690.33	1372.14
690.52	1304.56
690.71	1382.38
690.89	1318.89
691.08	1312.75
691.27	1322.99
691.45	1310.70
691.64	1421.29
691.83	1267.69
692.01	1286.12
692.20	1267.69
692.39	1302.51
692.57	1378.28
692.76	1353.71
692.95	1325.04
693.13	1378.28
693.32	1308.65
693.50	1394.67
693.69	1333.23
693.88	1343.47
694.06	1331.18
694.25	1341.42
694.44	1275.88
694.62	1355.76
694.81	1378.28
695.00	1359.85
695.18	1310.70
695.37	1357.80
695.55	1318.89
695.74	1316.84
695.93	1363.95
696.11	1386.47
696.30	1310.70
696.49	1380.33
696.67	1345.52
696.86	1347.56
697.04	1378.28
697.23	1331.18
697.42	1382.38
697.60	1376.24
697.79	1337.32
697.97	1304.56
698.16	1400.81
698.35	1411.05
698.53	1343.47
698.72	1382.38
698.90	1368.04
699.09	1370.09
699.28	1382.38
699.46	1359.85
699.65	1329.13
699.83	1345.52
700.02	1312.75
700.21	1337.32
700.39	1296.36
700.58	1390.57
700.76	1322.99
700.95	1325.04
701.13	1421.29
701.32	1443.82
701.51	1343.47
701.69	1310.70
701.88	1349.61
702.06	1361.90
702.25	1363.95
702.43	1343.47
702.62	1431.53
702.81	1363.95
702.99	1447.91
703.18	1322.99
703.36	1355.76
703.55	1361.90
703.73	1339.37
703.92	1406.95
704.10	1347.56
704.29	1296.36
704.48	1374.19
704.66	1363.95
704.85	1363.95
705.03	1380.33
705.22	1361.90
705.40	1388.52
705.59	1490.92
705.77	1404.91
705.96	1437.67
706.14	1421.29
706.33	1320.94
706.51	1425.39
706.70	1421.29
706.89	1327.08
707.07	1413.10
707.26	1333.23
707.44	1490.92
707.63	1343.47
707.81	1394.67
708.00	1468.39
708.18	1456.11
708.37	1347.56
708.55	1413.10
708.74	1400.81
708.92	1400.81
709.11	1380.33
709.29	1351.66
709.48	1439.72
709.66	1341.42
709.85	1275.88
710.03	1478.63
710.22	1415.15
710.40	1406.95
710.59	1429.48
710.77	1398.76
710.96	1456.11
711.14	1482.73
711.33	1501.16
711.51	1533.93
711.70	1449.96
711.88	1435.63
712.07	1429.48
712.25	1345.52
712.44	1564.65
712.62	1417.19
712.81	1441.77
712.99	1415.15
713.18	1400.81
713.36	1415.15
713.54	1368.04
713.73	1376.24
713.91	1325.04
714.10	1361.90
714.28	1443.82
714.47	1386.47
714.65	1361.90
714.84	1376.24
715.02	1327.08
715.21	1398.76
715.39	1421.29
715.58	1386.47
715.76	1351.66
715.94	1402.86
716.13	1390.57
716.31	1325.04
716.50	1425.39
716.68	1425.39
716.87	1394.67
717.05	1296.36
717.24	1322.99
717.42	1390.57
717.60	1417.19
717.79	1372.14
717.97	1417.19
718.16	1357.80
718.34	1394.67
718.53	1390.57
718.71	1435.63
718.89	1447.91
719.08	1398.76
719.26	1400.81
719.45	1425.39
719.63	1388.52
719.82	1398.76
720.00	1462.25
720.18	1384.43
720.37	1372.14
720.55	1415.15
720.74	1341.42
720.92	1259.50
721.10	1417.19
721.29	1374.19
721.47	1394.67
721.66	1460.20
721.84	1366.00
722.02	1351.66
722.21	1406.95
722.39	1402.86
722.58	1363.95
722.76	1406.95
722.94	1312.75
723.13	1394.67
723.31	1327.08
723.50	1417.19
723.68	1363.95
723.86	1404.91
724.05	1456.11
724.23	1452.01
724.41	1357.80
724.60	1411.05
724.78	1413.10
724.97	1413.10
725.15	1322.99
725.33	1343.47
725.52	1353.71
725.70	1327.08
725.88	1404.91
726.07	1413.10
726.25	1380.33
726.44	1419.24
726.62	1433.58
726.80	1431.53
726.99	1413.10
727.17	1413.10
727.35	1386.47
727.54	1335.28
727.72	1378.28
727.90	1341.42
728.09	1439.72
728.27	1402.86
728.45	1368.04
728.64	1394.67
728.82	1437.67
729.00	1411.05
729.19	1402.86
729.37	1372.14
729.55	1396.71
729.74	1368.04
729.92	1398.76
730.10	1415.15
730.29	1454.06
730.47	1411.05
730.65	1431.53
730.84	1411.05
731.02	1322.99
731.20	1402.86
731.39	1343.47
731.57	1388.52
731.75	1406.95
731.94	1411.05
732.12	1388.52
732.30	1449.96
732.49	1409.00
732.67	1425.39
732.85	1468.39
733.03	1472.49
733.22	1406.95
733.40	1452.01
733.58	1443.82
733.77	1411.05
733.95	1413.10
734.13	1300.46
734.32	1372.14
734.50	1411.05
734.68	1427.43
734.86	1431.53
735.05	1417.19
735.23	1359.85
735.41	1353.71
735.60	1368.04
735.78	1411.05
735.96	1400.81
736.14	1417.19
736.33	1394.67
736.51	1423.34
736.69	1363.95
736.87	1394.67
737.06	1527.78
737.24	1357.80
737.42	1366.00
737.61	1499.11
737.79	1413.10
737.97	1363.95
738.15	1511.40
738.34	1314.80
738.52	1392.62
738.70	1480.68
738.88	1400.81
739.07	1378.28
739.25	1355.76
739.43	1384.43
739.61	1335.28
739.80	1394.67
739.98	1425.39
740.16	1400.81
740.34	1384.43
740.52	1413.10
740.71	1374.19
740.89	1433.58
741.07	1474.54
741.25	1404.91
741.44	1390.57
741.62	1394.67
741.80	1419.24
741.98	1388.52
742.17	1392.62
742.35	1390.57
742.53	1345.52
742.71	1382.38
742.89	1398.76
743.08	1363.95
743.26	1454.06
743.44	1374.19
743.62	1437.67
743.80	1363.95
743.99	1433.58
744.17	1427.43
744.35	1394.67
744.53	1374.19
744.71	1376.24
744.90	1443.82
745.08	1370.09
745.26	1359.85
745.44	1443.82
745.62	1339.37
745.81	1486.83
745.99	1384.43
746.17	1411.05
746.35	1421.29
746.53	1449.96
746.72	1406.95
746.90	1492.97
747.08	1361.90
747.26	1439.72
747.44	1425.39
747.62	1343.47
747.81	1406.95
747.99	1370.09
748.17	1435.63
748.35	1413.10
748.53	1366.00
748.71	1402.86
748.90	1402.86
749.08	1441.77
749.26	1437.67
749.44	1411.05
749.62	1396.71
749.80	1454.06
749.99	1374.19
750.17	1462.25
750.35	1398.76
750.53	1452.01
750.71	1388.52
750.89	1406.95
751.07	1406.95
751.26	1366.00
751.44	1392.62
751.62	1427.43
751.80	1347.56
751.98	1370.09
752.16	1425.39
752.34	1431.53
752.53	1421.29
752.71	1355.76
752.89	1402.86
753.07	1331.18
753.25	1427.43
753.43	1409.00
753.61	1398.76
753.79	1415.15
753.98	1460.20
754.16	1501.16
754.34	1390.57
754.52	1421.29
754.70	1419.24
754.88	1411.05
755.06	1411.05
755.24	1421.29
755.42	1437.67
755.60	1484.78
755.79	1374.19
755.97	1404.91
756.15	1456.11
756.33	1275.88
756.51	1511.40
756.69	1390.57
756.87	1466.35
757.05	1431.53
757.23	1380.33
757.41	1517.54
757.60	1431.53
757.78	1425.39
757.96	1398.76
758.14	1419.24
758.32	1388.52
758.50	1454.06
758.68	1445.87
758.86	1409.00
759.04	1441.77
759.22	1431.53
759.40	1445.87
759.58	1542.12
759.76	1501.16
759.94	1460.20
760.13	1466.35
760.31	1445.87
760.49	1398.76
760.67	1472.49
760.85	1392.62
761.03	1427.43
761.21	1458.15
761.39	1433.58
761.57	1431.53
761.75	1454.06
761.93	1470.44
762.11	1441.77
762.29	1458.15
762.47	1437.67
762.65	1509.35
762.83	1509.35
763.01	1501.16
763.19	1495.02
763.37	1456.11
763.55	1490.92
763.73	1441.77
763.91	1468.39
764.09	1476.59
764.27	1452.01
764.45	1523.69
764.64	1501.16
764.82	1380.33
765.00	1531.88
765.18	1583.08
765.36	1431.53
765.54	1480.68
765.72	1435.63
765.90	1470.44
766.08	1429.48
766.26	1421.29
766.44	1503.21
766.62	1394.67
766.80	1400.81
766.98	1486.83
767.16	1552.36
767.34	1531.88
767.52	1439.72
767.70	1529.83
767.88	1447.91
768.06	1529.83
768.24	1419.24
768.42	1462.25
768.60	1454.06
768.78	1462.25
768.96	1478.63
769.13	1464.30
769.31	1484.78
769.49	1472.49
769.67	1437.67
769.85	1447.91
770.03	1511.40
770.21	1507.30
770.39	1421.29
770.57	1415.15
770.75	1433.58
770.93	1478.63
771.11	1478.63
771.29	1478.63
771.47	1427.43
771.65	1497.07
771.83	1452.01
772.01	1470.44
772.19	1480.68
772.37	1380.33
772.55	1449.96
772.73	1468.39
772.91	1443.82
773.09	1478.63
773.27	1427.43
773.44	1476.59
773.62	1488.87
773.80	1388.52
773.98	1499.11
774.16	1417.19
774.34	1482.73
774.52	1345.52
774.70	1413.10
774.88	1372.14
775.06	1421.29
775.24	1486.83
775.42	1462.25
775.60	1435.63
775.78	1484.78
775.95	1443.82
776.13	1454.06
776.31	1478.63
776.49	1454.06
776.67	1374.19
776.85	1445.87
777.03	1441.77
777.21	1396.71
777.39	1380.33
777.57	1464.30
777.75	1366.00
777.92	1431.53
778.10	1478.63
778.28	1394.67
778.46	1411.05
778.64	1443.82
778.82	1462.25
779.00	1441.77
779.18	1411.05
779.36	1433.58
779.53	1411.05
779.71	1474.54
779.89	1396.71
780.07	1386.47
780.25	1378.28
780.43	1394.67
780.61	1398.76
780.79	1425.39
780.96	1439.72
781.14	1388.52
781.32	1470.44
781.50	1411.05
781.68	1366.00
781.86	1396.71
782.04	1433.58
782.21	1425.39
782.39	1337.32
782.57	1431.53
782.75	1394.67
782.93	1398.76
783.11	1423.34
783.29	1372.14
783.46	1495.02
783.64	1425.39
783.82	1441.77
784.00	1441.77
784.18	1449.96
784.36	1366.00
784.54	1447.91
784.71	1415.15
784.89	1425.39
785.07	1449.96
785.25	1429.48
785.43	1480.68
785.60	1396.71
785.78	1413.10
785.96	1474.54
786.14	1355.76
786.32	1462.25
786.50	1413.10
786.67	1413.10
786.85	1402.86
787.03	1402.86
787.21	1396.71
787.39	1447.91
787.56	1388.52
787.74	1474.54
787.92	1468.39
788.10	1417.19
788.28	1351.66
788.45	1372.14
788.63	1368.04
788.81	1462.25
788.99	1386.47
789.17	1402.86
789.34	1392.62
789.52	1433.58
789.70	1402.86
789.88	1380.33
790.06	1347.56
790.23	1419.24
790.41	1452.01
790.59	1433.58
790.77	1466.35
790.95	1417.19
791.12	1464.30
791.30	1413.10
791.48	1388.52
791.66	1366.00
791.83	1423.34
792.01	1406.95
792.19	1429.48
792.37	1400.81
792.54	1372.14
792.72	1417.19
792.90	1447.91
793.08	1406.95
793.25	1409.00
793.43	1456.11
793.61	1423.34
793.79	1409.00
793.96	1425.39
794.14	1454.06
794.32	1439.72
794.50	1476.59
794.67	1400.81
794.85	1431.53
795.03	1466.35
795.21	1464.30
795.38	1427.43
795.56	1413.10
795.74	1429.48
795.92	1398.76
796.09	1368.04
796.27	1380.33
796.45	1454.06
796.62	1370.09
796.80	1366.00
796.98	1363.95
797.16	1441.77
797.33	1460.20
797.51	1355.76
797.69	1417.19
797.86	1425.39
798.04	1449.96
798.22	1449.96
798.40	1372.14
798.57	1370.09
798.75	1361.90
798.93	1421.29
799.10	1357.80
799.28	1458.15
799.46	1333.23
799.63	1388.52
799.81	1441.77
799.99	1347.56
800.17	1384.43
800.34	1402.86
800.52	1396.71
800.70	1398.76
800.87	1349.61
801.05	1413.10
801.23	1368.04
801.40	1376.24
801.58	1429.48
801.76	1341.42
801.93	1361.90
802.11	1404.91
802.29	1347.56
802.46	1386.47
802.64	1361.90
802.82	1400.81
802.99	1335.28
803.17	1413.10
803.35	1423.34
803.52	1454.06
803.70	1322.99
803.88	1368.04
804.05	1433.58
804.23	1390.57
804.41	1353.71
804.58	1411.05
804.76	1316.84
804.94	1454.06
805.11	1409.00
805.29	1413.10
805.46	1370.09
805.64	1390.57
805.82	1425.39
805.99	1439.72
806.17	1396.71
806.35	1421.29
806.52	1437.67
806.70	1378.28
806.87	1425.39
807.05	1361.90
807.23	1368.04
807.40	1384.43
807.58	1372.14
807.76	1452.01
807.93	1341.42
808.11	1417.19
808.28	1374.19
808.46	1386.47
808.64	1339.37
808.81	1392.62
808.99	1400.81
809.16	1470.44
809.34	1413.10
809.52	1431.53
809.69	1355.76
809.87	1394.67
810.04	1456.11
810.22	1337.32
810.40	1355.76
810.57	1363.95
810.75	1363.95
810.92	1376.24
811.10	1325.04
811.28	1290.22
811.45	1404.91
811.63	1370.09
811.80	1376.24
811.98	1398.76
812.15	1462.25
812.33	1392.62
812.51	1343.47
812.68	1413.10
812.86	1400.81
813.03	1392.62
813.21	1398.76
813.38	1411.05
813.56	1382.38
813.74	1376.24
813.91	1339.37
814.09	1378.28
814.26	1392.62
814.44	1288.17
814.61	1388.52
814.79	1310.70
814.96	1392.62
815.14	1359.85
815.31	1372.14
815.49	1335.28
815.67	1298.41
815.84	1341.42
816.02	1376.24
816.19	1476.59
816.37	1308.65
816.54	1423.34
816.72	1292.27
816.89	1267.69
817.07	1394.67
817.24	1462.25
817.42	1370.09
817.59	1417.19
817.77	1402.86
817.94	1370.09
818.12	1343.47
818.29	1361.90
818.47	1409.00
818.64	1388.52
818.82	1351.66
818.99	1374.19
819.17	1366.00
819.34	1298.41
819.52	1372.14
819.69	1359.85
819.87	1402.86
820.04	1386.47
820.22	1337.32
820.39	1335.28
820.57	1345.52
820.74	1425.39
820.92	1398.76
821.09	1384.43
821.27	1322.99
821.44	1400.81
821.62	1368.04
821.79	1333.23
821.97	1372.14
822.14	1425.39
822.32	1394.67
822.49	1331.18
822.67	1349.61
822.84	1378.28
823.02	1314.80
823.19	1335.28
823.37	1339.37
823.54	1318.89
823.72	1411.05
823.89	1400.81
824.06	1359.85
824.24	1355.76
824.41	1363.95
824.59	1413.10
824.76	1349.61
824.94	1353.71
825.11	1331.18
825.29	1333.23
825.46	1396.71
825.63	1320.94
825.81	1386.47
825.98	1398.76
826.16	1409.00
826.33	1390.57
826.51	1343.47
826.68	1386.47
826.86	1366.00
827.03	1335.28
827.20	1355.76
827.38	1374.19
827.55	1366.00
827.73	1380.33
827.90	1366.00
828.07	1392.62
828.25	1363.95
828.42	1384.43
828.60	1386.47
828.77	1380.33
828.95	1341.42
829.12	1380.33
829.29	1353.71
829.47	1345.52
829.64	1310.70
829.82	1325.04
829.99	1329.13
830.16	1355.76
830.34	1417.19
830.51	1333.23
830.69	1306.60
830.86	1421.29
831.03	1390.57
831.21	1327.08
831.38	1402.86
831.55	1286.12
831.73	1341.42
831.90	1400.81
832.08	1329.13
832.25	1366.00
832.42	1318.89
832.60	1394.67
832.77	1380.33
832.94	1351.66
833.12	1349.61
833.29	1368.04
833.47	1382.38
833.64	1333.23
833.81	1413.10
833.99	1400.81
834.16	1322.99
834.33	1322.99
834.51	1417.19
834.68	1339.37
834.85	1351.66
835.03	1329.13
835.20	1368.04
835.37	1406.95
835.55	1333.23
835.72	1288.17
835.90	1361.90
836.07	1429.48
836.24	1398.76
836.42	1363.95
836.59	1351.66
836.76	1374.19
836.94	1339.37
837.11	1388.52
837.28	1335.28
837.46	1384.43
837.63	1333.23
837.80	1335.28
837.97	1384.43
838.15	1259.50
838.32	1353.71
838.49	1347.56
838.67	1400.81
838.84	1431.53
839.01	1372.14
839.19	1296.36
839.36	1429.48
839.53	1363.95
839.71	1390.57
839.88	1349.61
840.05	1312.75
840.22	1290.22
840.40	1286.12
840.57	1355.76
840.74	1343.47
840.92	1337.32
841.09	1357.80
841.26	1318.89
841.43	1353.71
841.61	1337.32
841.78	1394.67
841.95	1331.18
842.13	1275.88
842.30	1304.56
842.47	1263.60
842.64	1339.37
842.82	1341.42
842.99	1361.90
843.16	1406.95
843.34	1400.81
843.51	1341.42
843.68	1333.23
843.85	1355.76
844.03	1380.33
844.20	1316.84
844.37	1310.70
844.54	1269.74
844.72	1361.90
844.89	1378.28
845.06	1304.56
845.23	1413.10
845.41	1363.95
845.58	1347.56
845.75	1431.53
845.92	1355.76
846.10	1282.03
846.27	1314.80
846.44	1310.70
846.61	1366.00
846.78	1363.95
846.96	1279.98
847.13	1298.41
847.30	1320.94
847.47	1298.41
847.65	1288.17
847.82	1359.85
847.99	1300.46
848.16	1318.89
848.33	1306.60
848.51	1300.46
848.68	1376.24
848.85	1355.76
849.02	1363.95
849.19	1298.41
849.37	1327.08
849.54	1345.52
849.71	1347.56
849.88	1310.70
850.05	1314.80
850.23	1335.28
850.40	1359.85
850.57	1306.60
850.74	1322.99
850.91	1292.27
851.09	1359.85
851.26	1329.13
851.43	1413.10
851.60	1370.09
851.77	1322.99
851.95	1351.66
852.12	1261.55
852.29	1322.99
852.46	1234.93
852.63	1306.60
852.80	1368.04
852.98	1349.61
853.15	1333.23
853.32	1351.66
853.49	1316.84
853.66	1263.60
853.83	1335.28
854.01	1265.64
854.18	1257.45
854.35	1361.90
854.52	1341.42
854.69	1320.94
854.86	1298.41
855.03	1349.61
855.21	1382.38
855.38	1366.00
855.55	1304.56
855.72	1300.46
855.89	1400.81
856.06	1308.65
856.23	1234.93
856.41	1341.42
856.58	1302.51
856.75	1296.36
856.92	1349.61
857.09	1316.84
857.26	1322.99
857.43	1277.93
857.60	1357.80
857.78	1339.37
857.95	1337.32
858.12	1318.89
858.29	1347.56
858.46	1382.38
858.63	1306.60
858.80	1357.80
858.97	1390.57
859.14	1279.98
859.32	1370.09
859.49	1331.18
859.66	1286.12
859.83	1257.45
860.00	1331.18
860.17	1347.56
860.34	1308.65
860.51	1304.56
860.68	1304.56
860.85	1417.19
861.02	1333.23
861.20	1302.51
861.37	1316.84
861.54	1300.46
861.71	1267.69
861.88	1253.36
862.05	1236.97
862.22	1374.19
862.39	1308.65
862.56	1263.60
862.73	1318.89
862.90	1339.37
863.07	1325.04
863.24	1298.41
863.41	1310.70
863.59	1304.56
863.76	1345.52
863.93	1302.51
864.10	1353.71
864.27	1333.23
864.44	1294.32
864.61	1335.28
864.78	1298.41
864.95	1308.65
865.12	1288.17
865.29	1322.99
865.46	1343.47
865.63	1382.38
865.80	1339.37
865.97	1325.04
866.14	1273.84
866.31	1284.08
866.48	1282.03
866.65	1273.84
866.82	1351.66
866.99	1341.42
867.16	1300.46
867.33	1335.28
867.50	1294.32
867.67	1361.90
867.84	1363.95
868.01	1302.51
868.18	1275.88
868.35	1275.88
868.52	1378.28
868.69	1337.32
868.86	1255.40
869.03	1251.31
869.20	1294.32
869.37	1384.43
869.54	1308.65
869.71	1308.65
869.88	1345.52
870.05	1347.56
870.22	1294.32
870.39	1300.46
870.56	1290.22
870.73	1269.74
870.90	1294.32
871.07	1312.75
871.24	1388.52
871.41	1333.23
871.58	1239.02
871.75	1308.65
871.92	1339.37
872.09	1345.52
872.26	1349.61
872.43	1333.23
872.60	1267.69
872.77	1322.99
872.94	1294.32
873.11	1292.27
873.28	1333.23
873.45	1333.23
873.62	1277.93
873.79	1284.08
873.96	1359.85
874.13	1343.47
874.30	1318.89
874.47	1306.60
874.64	1345.52
874.80	1322.99
874.97	1257.45
875.14	1312.75
875.31	1337.32
875.48	1314.80
875.65	1253.36
875.82	1378.28
875.99	1298.41
876.16	1263.60
876.33	1345.52
876.50	1288.17
876.67	1298.41
876.84	1302.51
877.01	1288.17
877.17	1232.88
877.34	1329.13
877.51	1279.98
877.68	1273.84
877.85	1243.12
878.02	1282.03
878.19	1290.22
878.36	1302.51
878.53	1288.17
878.70	1308.65
878.87	1275.88
879.03	1320.94
879.20	1370.09
879.37	1275.88
879.54	1302.51
879.71	1298.41
879.88	1306.60
880.05	1265.64
880.22	1308.65
880.39	1255.40
880.55	1298.41
880.72	1294.32
880.89	1310.70
881.06	1218.54
881.23	1267.69
881.40	1302.51
881.57	1349.61
881.74	1271.79
881.90	1230.83
882.07	1267.69
882.24	1284.08
882.41	1368.04
882.58	1388.52
882.75	1306.60
882.92	1288.17
883.08	1296.36
883.25	1331.18
883.42	1322.99
883.59	1320.94
883.76	1302.51
883.93	1228.78
884.09	1277.93
884.26	1296.36
884.43	1200.11
884.60	1290.22
884.77	1292.27
884.94	1310.70
885.10	1228.78
885.27	1288.17
885.44	1318.89
885.61	1308.65
885.78	1308.65
885.95	1288.17
886.11	1271.79
886.28	1380.33
886.45	1273.84
886.62	1198.06
886.79	1255.40
886.96	1257.45
887.12	1265.64
887.29	1320.94
887.46	1288.17
887.63	1376.24
887.80	1255.40
887.96	1322.99
888.13	1302.51
888.30	1273.84
888.47	1388.52
888.64	1296.36
888.80	1273.84
888.97	1261.55
889.14	1273.84
889.31	1339.37
889.47	1290.22
889.64	1218.54
889.81	1288.17
889.98	1226.73
890.15	1257.45
890.31	1298.41
890.48	1298.41
890.65	1298.41
890.82	1298.41
890.98	1298.41
891.15	1298.41
>>>>>End Processed Spectral Data<<<<<
