SpectraSuite Data File
++++++++++++++++++++++++++++++++++++
Date: Fri Jan 24 16:55:29 MST 2020
User: Molly
Dark Spectrum Present: Yes
Reference Spectrum Present: Yes
Number of Sampled Component Spectra: 1
Spectrometers: USB4E03280
Integration Time (usec): 32000 (USB4E03280)
Spectra Averaged: 1 (USB4E03280)
Boxcar Smoothing: 0 (USB4E03280)
Correct for Electrical Dark: No (USB4E03280)
Strobe/Lamp Enabled: Yes (USB4E03280)
Correct for Detector Non-linearity: No (USB4E03280)
Correct for Stray Light: No (USB4E03280)
Number of Pixels in Processed Spectrum: 3648
>>>>>Begin Processed Spectral Data<<<<<
177.66	1187.82
177.88	1187.82
178.10	1187.82
178.32	1153.01
178.54	1257.45
178.76	1212.40
178.98	1232.88
179.19	1269.74
179.41	1179.63
179.63	1196.01
179.85	1204.21
180.07	1243.12
180.29	1255.40
180.51	1236.97
180.72	1183.73
180.94	1239.02
181.16	1259.50
181.38	1216.49
181.60	1327.08
181.82	1273.84
182.04	1212.40
182.25	1249.26
182.47	1265.64
182.69	1306.60
182.91	1243.12
183.13	1245.16
183.35	1187.82
183.56	1232.88
183.78	1193.97
184.00	1243.12
184.22	1247.21
184.44	1302.51
184.66	1255.40
184.87	1294.32
185.09	1294.32
185.31	1292.27
185.53	1224.69
185.75	1220.59
185.97	1249.26
186.18	1255.40
186.40	1372.14
186.62	1300.46
186.84	1239.02
187.06	1241.07
187.28	1187.82
187.49	1339.37
187.71	1279.98
187.93	1302.51
188.15	1286.12
188.37	1236.97
188.59	1267.69
188.80	1263.60
189.02	1204.21
189.24	1279.98
189.46	1241.07
189.68	1316.84
189.89	1277.93
190.11	1214.45
190.33	1241.07
190.55	1261.55
190.77	1224.69
190.98	1173.49
191.20	1234.93
191.42	1208.30
191.64	1310.70
191.86	1261.55
192.07	1208.30
192.29	1181.68
192.51	1284.08
192.73	1224.69
192.95	1241.07
193.16	1239.02
193.38	1329.13
193.60	1273.84
193.82	1236.97
194.04	1193.97
194.25	1206.25
194.47	1243.12
194.69	1216.49
194.91	1288.17
195.13	1234.93
195.34	1239.02
195.56	1245.16
195.78	1263.60
196.00	1222.64
196.22	1279.98
196.43	1310.70
196.65	1239.02
196.87	1228.78
197.09	1249.26
197.30	1259.50
197.52	1282.03
197.74	1245.16
197.96	1243.12
198.18	1343.47
198.39	1249.26
198.61	1236.97
198.83	1267.69
199.05	1216.49
199.26	1286.12
199.48	1322.99
199.70	1230.83
199.92	1245.16
200.13	1236.97
200.35	1200.11
200.57	1220.59
200.79	1257.45
201.00	1269.74
201.22	1230.83
201.44	1230.83
201.66	1275.88
201.88	1239.02
202.09	1187.82
202.31	1296.36
202.53	1337.32
202.75	1220.59
202.96	1220.59
203.18	1300.46
203.40	1314.80
203.62	1232.88
203.83	1267.69
204.05	1251.31
204.27	1357.80
204.49	1275.88
204.70	1212.40
204.92	1210.35
205.14	1198.06
205.35	1230.83
205.57	1333.23
205.79	1206.25
206.01	1322.99
206.22	1279.98
206.44	1259.50
206.66	1282.03
206.88	1249.26
207.09	1279.98
207.31	1257.45
207.53	1255.40
207.75	1167.34
207.96	1253.36
208.18	1312.75
208.40	1308.65
208.61	1243.12
208.83	1269.74
209.05	1191.92
209.27	1249.26
209.48	1275.88
209.70	1292.27
209.92	1265.64
210.14	1267.69
210.35	1191.92
210.57	1265.64
210.79	1220.59
211.00	1284.08
211.22	1241.07
211.44	1345.52
211.66	1259.50
211.87	1253.36
212.09	1218.54
212.31	1253.36
212.52	1259.50
212.74	1253.36
212.96	1267.69
213.17	1251.31
213.39	1234.93
213.61	1318.89
213.83	1243.12
214.04	1212.40
214.26	1239.02
214.48	1288.17
214.69	1234.93
214.91	1312.75
215.13	1251.31
215.34	1247.21
215.56	1251.31
215.78	1277.93
216.00	1312.75
216.21	1343.47
216.43	1261.55
216.65	1247.21
216.86	1220.59
217.08	1351.66
217.30	1359.85
217.51	1261.55
217.73	1308.65
217.95	1236.97
218.16	1298.41
218.38	1249.26
218.60	1193.97
218.81	1279.98
219.03	1251.31
219.25	1277.93
219.46	1210.35
219.68	1198.06
219.90	1327.08
220.11	1263.60
220.33	1292.27
220.55	1306.60
220.76	1312.75
220.98	1306.60
221.20	1277.93
221.41	1212.40
221.63	1241.07
221.85	1167.34
222.06	1232.88
222.28	1304.56
222.50	1333.23
222.71	1212.40
222.93	1216.49
223.15	1210.35
223.36	1245.16
223.58	1374.19
223.80	1257.45
224.01	1150.96
224.23	1349.61
224.45	1296.36
224.66	1298.41
224.88	1277.93
225.10	1241.07
225.31	1279.98
225.53	1226.73
225.75	1243.12
225.96	1245.16
226.18	1251.31
226.39	1222.64
226.61	1292.27
226.83	1275.88
227.04	1212.40
227.26	1333.23
227.48	1267.69
227.69	1275.88
227.91	1286.12
228.13	1263.60
228.34	1302.51
228.56	1282.03
228.77	1183.73
228.99	1222.64
229.21	1279.98
229.42	1277.93
229.64	1206.25
229.86	1228.78
230.07	1304.56
230.29	1204.21
230.50	1243.12
230.72	1267.69
230.94	1290.22
231.15	1265.64
231.37	1255.40
231.58	1253.36
231.80	1294.32
232.02	1224.69
232.23	1353.71
232.45	1284.08
232.67	1273.84
232.88	1273.84
233.10	1243.12
233.31	1337.32
233.53	1232.88
233.75	1224.69
233.96	1263.60
234.18	1292.27
234.39	1210.35
234.61	1320.94
234.83	1196.01
235.04	1284.08
235.26	1200.11
235.47	1294.32
235.69	1261.55
235.91	1314.80
236.12	1286.12
236.34	1257.45
236.55	1243.12
236.77	1310.70
236.99	1230.83
237.20	1257.45
237.42	1292.27
237.63	1163.25
237.85	1306.60
238.06	1222.64
238.28	1183.73
238.50	1329.13
238.71	1275.88
238.93	1284.08
239.14	1343.47
239.36	1245.16
239.58	1271.79
239.79	1306.60
240.01	1337.32
240.22	1263.60
240.44	1239.02
240.65	1271.79
240.87	1292.27
241.09	1210.35
241.30	1251.31
241.52	1261.55
241.73	1279.98
241.95	1196.01
242.16	1279.98
242.38	1245.16
242.59	1273.84
242.81	1243.12
243.03	1312.75
243.24	1294.32
243.46	1241.07
243.67	1216.49
243.89	1261.55
244.10	1200.11
244.32	1277.93
244.53	1286.12
244.75	1282.03
244.97	1245.16
245.18	1296.36
245.40	1243.12
245.61	1224.69
245.83	1214.45
246.04	1331.18
246.26	1236.97
246.47	1253.36
246.69	1263.60
246.90	1314.80
247.12	1288.17
247.34	1265.64
247.55	1251.31
247.77	1290.22
247.98	1320.94
248.20	1284.08
248.41	1212.40
248.63	1304.56
248.84	1322.99
249.06	1327.08
249.27	1224.69
249.49	1234.93
249.70	1267.69
249.92	1284.08
250.13	1234.93
250.35	1245.16
250.56	1339.37
250.78	1269.74
251.00	1277.93
251.21	1304.56
251.43	1282.03
251.64	1282.03
251.86	1236.97
252.07	1216.49
252.29	1267.69
252.50	1243.12
252.72	1273.84
252.93	1273.84
253.15	1310.70
253.36	1310.70
253.58	1271.79
253.79	1298.41
254.01	1302.51
254.22	1243.12
254.44	1251.31
254.65	1214.45
254.87	1251.31
255.08	1267.69
255.30	1277.93
255.51	1175.53
255.73	1282.03
255.94	1292.27
256.16	1304.56
256.37	1306.60
256.59	1331.18
256.80	1259.50
257.02	1265.64
257.23	1236.97
257.45	1263.60
257.66	1325.04
257.88	1290.22
258.09	1249.26
258.31	1228.78
258.52	1294.32
258.74	1269.74
258.95	1298.41
259.16	1232.88
259.38	1322.99
259.59	1290.22
259.81	1302.51
260.02	1286.12
260.24	1239.02
260.45	1247.21
260.67	1273.84
260.88	1359.85
261.10	1284.08
261.31	1228.78
261.53	1247.21
261.74	1296.36
261.96	1253.36
262.17	1325.04
262.39	1257.45
262.60	1253.36
262.81	1275.88
263.03	1267.69
263.24	1249.26
263.46	1284.08
263.67	1286.12
263.89	1273.84
264.10	1279.98
264.32	1343.47
264.53	1239.02
264.75	1259.50
264.96	1310.70
265.17	1296.36
265.39	1306.60
265.60	1290.22
265.82	1284.08
266.03	1249.26
266.25	1322.99
266.46	1236.97
266.68	1261.55
266.89	1298.41
267.10	1222.64
267.32	1318.89
267.53	1261.55
267.75	1241.07
267.96	1273.84
268.18	1261.55
268.39	1316.84
268.61	1200.11
268.82	1228.78
269.03	1286.12
269.25	1259.50
269.46	1228.78
269.68	1284.08
269.89	1282.03
270.11	1331.18
270.32	1294.32
270.53	1263.60
270.75	1302.51
270.96	1261.55
271.18	1234.93
271.39	1265.64
271.60	1300.46
271.82	1265.64
272.03	1290.22
272.25	1359.85
272.46	1290.22
272.68	1279.98
272.89	1261.55
273.10	1234.93
273.32	1298.41
273.53	1224.69
273.75	1241.07
273.96	1269.74
274.17	1273.84
274.39	1255.40
274.60	1298.41
274.82	1261.55
275.03	1226.73
275.24	1263.60
275.46	1345.52
275.67	1288.17
275.89	1279.98
276.10	1302.51
276.31	1325.04
276.53	1206.25
276.74	1259.50
276.96	1296.36
277.17	1259.50
277.38	1212.40
277.60	1327.08
277.81	1263.60
278.02	1251.31
278.24	1349.61
278.45	1234.93
278.67	1263.60
278.88	1298.41
279.09	1216.49
279.31	1302.51
279.52	1275.88
279.73	1355.76
279.95	1253.36
280.16	1290.22
280.38	1251.31
280.59	1329.13
280.80	1327.08
281.02	1300.46
281.23	1226.73
281.44	1376.24
281.66	1282.03
281.87	1310.70
282.09	1269.74
282.30	1290.22
282.51	1300.46
282.73	1320.94
282.94	1343.47
283.15	1273.84
283.37	1228.78
283.58	1353.71
283.79	1286.12
284.01	1327.08
284.22	1359.85
284.43	1294.32
284.65	1296.36
284.86	1286.12
285.07	1331.18
285.29	1284.08
285.50	1310.70
285.72	1421.29
285.93	1359.85
286.14	1441.77
286.36	1419.24
286.57	1370.09
286.78	1388.52
287.00	1310.70
287.21	1476.59
287.42	1472.49
287.64	1501.16
287.85	1388.52
288.06	1495.02
288.28	1572.84
288.49	1533.93
288.70	1591.27
288.92	1597.42
289.13	1650.66
289.34	1611.75
289.56	1624.04
289.77	1572.84
289.98	1685.48
290.19	1667.05
290.41	1613.80
290.62	1552.36
290.83	1687.53
291.05	1660.90
291.26	1660.90
291.47	1632.23
291.69	1746.92
291.90	1759.21
292.11	1775.59
292.33	1859.56
292.54	1884.13
292.75	1830.88
292.97	1910.75
293.18	1918.95
293.39	1974.24
293.60	2002.91
293.82	2039.78
294.03	2183.13
294.24	2265.05
294.46	2373.60
294.67	2375.64
294.88	2467.80
295.10	2435.03
295.31	2418.65
295.52	2623.45
295.73	2795.48
295.95	2805.72
296.16	2949.08
296.37	3055.57
296.59	2985.94
296.80	3106.77
297.01	3110.86
297.22	3059.67
297.44	3325.90
297.65	3321.81
297.86	3299.28
298.08	3352.52
298.29	3553.23
298.50	3590.09
298.71	3620.81
298.93	3710.92
299.14	3690.44
299.35	3735.50
299.56	3774.41
299.78	3999.68
299.99	3975.11
300.20	3977.16
300.42	4011.97
300.63	3973.06
300.84	4077.51
301.05	4104.13
301.27	4179.90
301.48	4222.91
301.69	4253.63
301.90	4112.32
302.12	4304.83
302.33	4358.08
302.54	4296.64
302.75	4347.84
302.97	4413.37
303.18	4419.52
303.39	4534.20
303.60	4507.58
303.82	4587.45
304.03	4677.56
304.24	4587.45
304.45	4585.40
304.67	4747.19
304.88	4739.00
305.09	4747.19
305.30	4757.43
305.52	4888.50
305.73	4851.64
305.94	4739.00
306.15	4849.59
306.37	5060.53
306.58	5009.33
306.79	4906.93
307.00	4962.23
307.22	4980.66
307.43	5255.09
307.64	4984.76
307.85	5046.20
308.06	5183.41
308.28	5179.31
308.49	5083.06
308.70	5318.57
308.91	5148.59
309.13	5222.32
309.34	5412.78
309.55	5267.38
309.76	5332.91
309.97	5267.38
310.19	5396.40
310.40	5326.77
310.61	5291.95
310.82	5386.16
311.04	5283.76
311.25	5470.12
311.46	5470.12
311.67	5511.08
311.88	5468.08
312.10	5543.85
312.31	5535.66
312.52	5660.59
312.73	5609.39
312.94	5531.56
313.16	5738.41
313.37	5550.00
313.58	5822.38
313.79	5873.57
314.00	5775.27
314.22	5617.58
314.43	5855.14
314.64	5805.99
314.85	5861.29
315.06	5961.64
315.27	5984.16
315.49	5824.42
315.70	5894.05
315.91	6029.22
316.12	5980.07
316.33	6016.93
316.55	5967.78
316.76	5984.16
316.97	6127.52
317.18	5965.73
317.39	6068.13
317.60	6104.99
317.82	6055.84
318.03	6076.32
318.24	6014.88
318.45	6029.22
318.66	6057.89
318.88	6307.74
319.09	6039.46
319.30	6090.66
319.51	6309.79
319.72	6385.57
319.93	6309.79
320.15	6373.28
320.36	6569.88
320.57	6465.44
320.78	6225.82
320.99	6420.38
321.20	6297.50
321.41	6330.27
321.63	6344.61
321.84	6358.94
322.05	6508.44
322.26	6539.16
322.47	6537.12
322.68	6508.44
322.90	6496.16
323.11	6205.35
323.32	6582.17
323.53	6496.16
323.74	6377.37
323.95	6537.12
324.16	6582.17
324.38	6397.85
324.59	6440.86
324.80	6459.29
325.01	6440.86
325.22	6461.34
325.43	6510.49
325.64	6670.23
325.85	6455.20
326.07	6492.06
326.28	6592.41
326.49	6473.63
326.70	6614.94
326.91	6420.38
327.12	6168.48
327.33	6242.21
327.54	6406.05
327.76	6311.84
327.97	6211.49
328.18	6199.20
328.39	6236.06
328.60	6268.83
328.81	6326.18
329.02	6254.50
329.23	6436.77
329.45	6346.66
329.66	6356.90
329.87	6371.23
330.08	6567.84
330.29	6582.17
330.50	6686.62
330.71	6424.48
330.92	6604.70
331.13	6875.03
331.34	6805.40
331.56	6850.46
331.77	7053.20
331.98	7237.52
332.19	7333.78
332.40	7331.73
332.61	7436.17
332.82	7145.36
333.03	7126.93
333.24	7014.29
333.45	6784.92
333.67	6729.63
333.88	6647.71
334.09	6717.34
334.30	6825.88
334.51	6762.39
334.72	6670.23
334.93	6768.54
335.14	6526.88
335.35	6772.63
335.56	6625.18
335.77	6703.00
335.98	6737.82
336.19	6700.95
336.41	6864.79
336.62	6963.09
336.83	6760.34
337.04	6729.63
337.25	6672.28
337.46	6629.27
337.67	6709.15
337.88	6801.30
338.09	6870.94
338.30	6651.80
338.51	7034.77
338.72	6651.80
338.93	6817.69
339.14	6754.20
339.35	7008.15
339.57	6952.85
339.78	6840.22
339.99	6963.09
340.20	7036.82
340.41	6944.66
340.62	6959.00
340.83	6963.09
341.04	6729.63
341.25	6956.95
341.46	6995.86
341.67	6979.48
341.88	6961.05
342.09	7096.21
342.30	6752.15
342.51	6891.41
342.72	6979.48
342.93	6893.46
343.14	7049.11
343.35	6975.38
343.56	7137.17
343.77	7114.64
343.98	7002.01
344.19	7141.27
344.41	7061.40
344.62	6870.94
344.83	7081.88
345.04	6918.04
345.25	7026.58
345.46	7057.30
345.67	7006.10
345.88	7045.01
346.09	6875.03
346.30	7133.08
346.51	7171.99
346.72	6999.96
346.93	7161.75
347.14	7131.03
347.35	7190.42
347.56	6944.66
347.77	7120.79
347.98	7073.68
348.19	6915.99
348.40	7018.39
348.61	7034.77
348.82	7055.25
349.03	6932.37
349.24	6952.85
349.45	7040.92
349.66	6883.22
349.87	6991.77
350.08	6840.22
350.29	7057.30
350.50	6860.70
350.71	6887.32
350.92	6985.62
351.13	6854.55
351.34	6807.45
351.55	6918.04
351.76	6825.88
351.97	6948.76
352.18	6913.94
352.39	6981.53
352.60	7085.97
352.81	6975.38
353.02	6918.04
353.23	6954.90
353.44	6881.18
353.65	7045.01
353.86	6809.50
354.07	6868.89
354.28	6866.84
354.49	6815.64
354.70	6801.30
354.90	6733.72
355.11	6989.72
355.32	6950.81
355.53	6776.73
355.74	6705.05
355.95	6664.09
356.16	6850.46
356.37	7016.34
356.58	7049.11
356.79	6905.75
357.00	6918.04
357.21	6823.83
357.42	7042.96
357.63	6942.61
357.84	6866.84
358.05	6934.42
358.26	6969.24
358.47	7063.44
358.68	6670.23
358.89	6967.19
359.10	6903.70
359.31	6895.51
359.52	6899.61
359.73	7159.70
359.93	7106.45
360.14	7088.02
360.35	6999.96
360.56	6973.33
360.77	7161.75
360.98	7090.07
361.19	7040.92
361.40	7141.27
361.61	7141.27
361.82	7309.20
362.03	7167.89
362.24	7223.19
362.45	7305.10
362.66	7102.36
362.87	7323.54
363.07	7208.85
363.28	7391.12
363.49	7268.24
363.70	7286.67
363.91	7219.09
364.12	7255.95
364.33	7040.92
364.54	7561.10
364.75	7489.42
364.96	7194.51
365.17	7395.22
365.38	7454.61
365.58	7487.37
365.79	7456.65
366.00	7479.18
366.21	7427.98
366.42	7511.95
366.63	7749.51
366.84	7518.09
367.05	7667.60
367.26	7569.29
367.47	7319.44
367.67	7395.22
367.88	7690.12
368.09	7694.22
368.30	7640.97
368.51	7614.35
368.72	7665.55
368.93	7546.76
369.14	7581.58
369.35	7475.09
369.56	7524.24
369.76	7374.74
369.97	7454.61
370.18	7417.74
370.39	7399.31
370.60	7305.10
370.81	7593.87
371.02	7282.58
371.23	7624.59
371.43	7393.17
371.64	7485.33
371.85	7413.65
372.06	7319.44
372.27	7632.78
372.48	7561.10
372.69	7425.93
372.90	7620.49
373.10	7423.89
373.31	7655.31
373.52	7593.87
373.73	7702.41
373.94	7661.45
374.15	7747.47
374.36	7546.76
374.56	7712.65
374.77	7618.44
374.98	7583.63
375.19	7649.16
375.40	7659.40
375.61	7688.07
375.82	7823.24
376.02	7524.24
376.23	7843.72
376.44	7841.67
376.65	7706.51
376.86	7802.76
377.07	7657.36
377.28	7882.63
377.48	7980.93
377.69	7888.78
377.90	7872.39
378.11	8005.51
378.32	7927.69
378.53	7862.15
378.73	8036.23
378.94	7741.32
379.15	7888.78
379.36	7772.04
379.57	7747.47
379.78	7692.17
379.98	7671.69
380.19	7817.10
380.40	7612.30
380.61	7669.64
380.82	7583.63
381.03	7462.80
381.23	7763.85
381.44	8017.80
381.65	7849.86
381.86	7718.79
382.07	7657.36
382.27	7899.02
382.48	7669.64
382.69	7724.94
382.90	7507.85
383.11	7577.48
383.32	7706.51
383.52	7751.56
383.73	7673.74
383.94	7688.07
384.15	7618.44
384.36	7606.16
384.56	7610.25
384.77	7683.98
384.98	8066.95
385.19	7896.97
385.40	7518.09
385.60	7567.24
385.81	7597.96
386.02	7671.69
386.23	7790.47
386.43	7888.78
386.64	7888.78
386.85	7997.32
387.06	7757.71
387.27	7919.50
387.47	7987.08
387.68	7776.14
387.89	7878.54
388.10	7544.72
388.31	7921.54
388.51	8050.57
388.72	8003.46
388.93	7630.73
389.14	7749.51
389.34	7487.37
389.55	7878.54
389.76	7735.18
389.97	7909.26
390.18	7901.06
390.38	8005.51
390.59	7751.56
390.80	7882.63
391.01	8028.04
391.21	8198.02
391.42	8365.95
391.63	8228.74
391.84	8165.25
392.04	8226.69
392.25	8251.27
392.46	8150.92
392.67	8206.21
392.87	8392.58
393.08	7796.62
393.29	8054.66
393.50	8060.80
393.70	7948.17
393.91	7833.48
394.12	7890.82
394.33	7763.85
394.53	7813.00
394.74	7669.64
394.95	7690.12
395.16	8032.13
395.36	7708.55
395.57	7669.64
395.78	7415.69
395.99	7571.34
396.19	7948.17
396.40	8040.33
396.61	7780.23
396.81	7804.81
397.02	8132.48
397.23	8181.64
397.44	8437.63
397.64	8421.25
397.85	8527.74
398.06	8281.99
398.27	8345.47
398.47	8363.90
398.68	8187.78
398.89	8011.65
399.09	8107.91
399.30	7886.73
399.51	8013.70
399.72	7962.50
399.92	7972.74
400.13	7686.03
400.34	7892.87
400.54	7872.39
400.75	8038.28
400.96	7831.43
401.17	8126.34
401.37	7729.03
401.58	7847.82
401.79	7833.48
401.99	8085.38
402.20	8028.04
402.41	7952.26
402.61	7659.40
402.82	7841.67
403.03	7821.19
403.24	7796.62
403.44	7931.78
403.65	7796.62
403.86	8040.33
404.06	8116.10
404.27	7997.32
404.48	8118.15
404.68	8048.52
404.89	8005.51
405.10	7997.32
405.30	8130.44
405.51	7749.51
405.72	7761.80
405.92	7659.40
406.13	7634.83
406.34	7780.23
406.54	7743.37
406.75	7606.16
406.96	7708.55
407.16	7958.41
407.37	7978.89
407.58	7915.40
407.78	8148.87
407.99	8118.15
408.20	8537.98
408.40	7982.98
408.61	7999.37
408.82	8003.46
409.02	7960.45
409.23	8009.61
409.44	8128.39
409.64	7753.61
409.85	7679.88
410.06	7600.01
410.26	7909.26
410.47	7780.23
410.68	7765.90
410.88	8214.40
411.09	8130.44
411.30	7911.30
411.50	8001.41
411.71	7974.79
411.91	8208.26
412.12	7946.12
412.33	8198.02
412.53	7841.67
412.74	8126.34
412.95	8107.91
413.15	8320.90
413.36	7970.69
413.57	7907.21
413.77	7675.79
413.98	7909.26
414.18	7939.97
414.39	7774.09
414.60	7909.26
414.80	8091.52
415.01	7739.27
415.22	7960.45
415.42	7858.06
415.63	7888.78
415.83	7710.60
416.04	7724.94
416.25	7808.90
416.45	7884.68
416.66	7704.46
416.86	7929.74
417.07	8007.56
417.28	7839.62
417.48	7899.02
417.69	7821.19
417.89	7917.45
418.10	7630.73
418.31	7901.06
418.51	8030.09
418.72	8144.77
418.92	7546.76
419.13	8011.65
419.34	7964.55
419.54	8179.59
419.75	7995.27
419.95	8284.03
420.16	8073.09
420.37	8396.67
420.57	8417.15
420.78	8142.72
420.98	8742.78
421.19	8599.42
421.40	8069.00
421.60	8310.66
421.81	8269.70
422.01	8005.51
422.22	8243.07
422.42	8185.73
422.63	8040.33
422.84	8077.19
423.04	7716.75
423.25	7862.15
423.45	7942.02
423.66	8230.79
423.86	8054.66
424.07	8112.00
424.28	8445.82
424.48	8005.51
424.69	7862.15
424.89	8038.28
425.10	8081.28
425.30	7700.36
425.51	7600.01
425.72	7796.62
425.92	7675.79
426.13	7827.34
426.33	7860.10
426.54	8175.49
426.74	7905.16
426.95	7944.07
427.15	8107.91
427.36	8040.33
427.56	7741.32
427.77	8058.76
427.98	8210.31
428.18	8028.04
428.39	8490.88
428.59	8380.29
428.80	8310.66
429.00	8830.84
429.21	8898.42
429.41	8554.37
429.62	8763.26
429.82	9021.30
430.03	8568.70
430.23	8548.22
430.44	8753.02
430.65	8275.84
430.85	8652.67
431.06	8353.66
431.26	8066.95
431.47	7987.08
431.67	8136.58
431.88	7876.49
432.08	8114.05
432.29	7958.41
432.49	8171.40
432.70	7868.30
432.90	8023.94
433.11	8034.18
433.31	7790.47
433.52	7882.63
433.72	7946.12
433.93	7876.49
434.13	8171.40
434.34	7995.27
434.54	8284.03
434.75	8056.71
434.95	8345.47
435.16	8218.50
435.36	8396.67
435.57	8232.83
435.77	8384.38
435.98	8290.18
436.18	8202.11
436.39	7880.58
436.59	8126.34
436.80	8155.01
437.00	8087.43
437.21	8124.29
437.41	8265.60
437.62	8441.73
437.82	8560.51
438.03	8056.71
438.23	8351.62
438.44	8189.83
438.64	8005.51
438.85	7927.69
439.05	8122.24
439.25	8116.10
439.46	7735.18
439.66	7606.16
439.87	7905.16
440.07	8124.29
440.28	7741.32
440.48	7974.79
440.69	7966.60
440.89	8224.64
441.10	7952.26
441.30	7729.03
441.51	7970.69
441.71	8249.22
441.92	7745.42
442.12	8044.42
442.32	8269.70
442.53	8009.61
442.73	8189.83
442.94	7909.26
443.14	8198.02
443.35	7774.09
443.55	8023.94
443.76	7954.31
443.96	7829.38
444.16	7864.20
444.37	8023.94
444.57	7989.13
444.78	8087.43
444.98	8001.41
445.19	8040.33
445.39	8062.85
445.60	7972.74
445.80	8193.92
446.00	8150.92
446.21	8085.38
446.41	8032.13
446.62	7769.99
446.82	7999.37
447.03	8062.85
447.23	8255.36
447.43	7919.50
447.64	8103.81
447.84	7698.31
448.05	7788.43
448.25	7868.30
448.45	8148.87
448.66	7866.25
448.86	7954.31
449.07	8060.80
449.27	7829.38
449.48	7765.90
449.68	7686.03
449.88	7610.25
450.09	7810.95
450.29	8034.18
450.50	7710.60
450.70	7862.15
450.90	7993.22
451.11	7604.11
451.31	7722.89
451.52	7606.16
451.72	7581.58
451.92	7614.35
452.13	7538.57
452.33	7819.14
452.54	7425.93
452.74	7282.58
452.94	7528.33
453.15	7206.80
453.35	7350.16
453.55	7231.38
453.76	7423.89
453.96	7448.46
454.17	7059.35
454.37	7524.24
454.57	7368.59
454.78	7380.88
454.98	7184.27
455.19	7149.46
455.39	7493.52
455.59	7284.62
455.80	7040.92
456.00	7358.35
456.20	7536.52
456.41	7520.14
456.61	7374.74
456.81	7563.15
457.02	7176.08
457.22	7514.00
457.43	7337.87
457.63	7174.03
457.83	7085.97
458.04	7298.96
458.24	7235.47
458.44	6987.67
458.65	7368.59
458.85	7210.90
459.05	7399.31
459.26	7260.05
459.46	7298.96
459.66	7485.33
459.87	7544.72
460.07	7348.11
460.27	7681.93
460.48	7401.36
460.68	7298.96
460.88	7094.16
461.09	6936.47
461.29	7051.16
461.49	6932.37
461.70	7165.84
461.90	6997.91
462.10	6737.82
462.31	6985.62
462.51	6848.41
462.71	6813.59
462.92	6778.78
463.12	7110.55
463.32	7178.13
463.53	7034.77
463.73	7309.20
463.93	7223.19
464.14	7593.87
464.34	7495.57
464.54	7683.98
464.75	7653.26
464.95	7892.87
465.15	7612.30
465.36	7483.28
465.56	7341.97
465.76	7303.06
465.96	7325.58
466.17	7028.63
466.37	7116.69
466.57	7368.59
466.78	7157.65
466.98	7022.48
467.18	7210.90
467.39	7139.22
467.59	7006.10
467.79	7071.64
467.99	7096.21
468.20	7030.68
468.40	7118.74
468.60	6834.07
468.81	7229.33
469.01	6993.81
469.21	6905.75
469.41	7075.73
469.62	6995.86
469.82	7073.68
470.02	7051.16
470.23	7002.01
470.43	7075.73
470.63	6918.04
470.83	7118.74
471.04	7034.77
471.24	7253.91
471.44	6942.61
471.65	7284.62
471.85	7550.86
472.05	7438.22
472.25	7427.98
472.46	7438.22
472.66	7501.71
472.86	7767.95
473.06	7604.11
473.27	7575.44
473.47	7819.14
473.67	7950.21
473.87	7933.83
474.08	8161.16
474.28	8179.59
474.48	8329.09
474.68	8136.58
474.89	8263.55
475.09	7896.97
475.29	8187.78
475.49	8175.49
475.70	8175.49
475.90	8269.70
476.10	8081.28
476.30	8167.30
476.51	8306.56
476.71	8376.19
476.91	8189.83
477.11	8310.66
477.32	8112.00
477.52	8454.02
477.72	8263.55
477.92	8376.19
478.12	8388.48
478.33	8161.16
478.53	8558.46
478.73	8595.32
478.93	8517.50
479.14	8406.91
479.34	8822.65
479.54	8812.41
479.74	8855.42
479.94	8912.76
480.15	8933.24
480.35	8855.42
480.55	9088.89
480.75	9279.35
480.96	9246.58
481.16	9189.24
481.36	9205.62
481.56	9142.13
481.76	9203.57
481.97	9179.00
482.17	9207.67
482.37	9262.96
482.57	9224.05
482.77	9453.42
482.98	9598.83
483.18	9598.83
483.38	9688.94
483.58	9860.97
483.78	9783.15
483.98	9832.30
484.19	10125.16
484.39	10366.82
484.59	10350.43
484.79	10434.40
484.99	10833.75
485.20	10813.28
485.40	10493.79
485.60	10602.33
485.80	10633.05
486.00	10829.66
486.20	10649.44
486.41	10643.29
486.61	10428.26
486.81	10303.33
487.01	10082.15
487.21	9985.90
487.42	9750.38
487.62	10088.29
487.82	9774.95
488.02	9928.55
488.22	9777.00
488.42	9844.59
488.62	9670.51
488.83	9570.16
489.03	9697.13
489.23	9746.28
489.43	9607.02
489.63	9625.45
489.83	9604.97
490.04	9742.19
490.24	9381.74
490.44	9795.43
490.64	9553.77
490.84	9434.99
491.04	9633.64
491.24	9736.04
491.45	9596.78
491.65	9344.88
491.85	9473.90
492.05	9758.57
492.25	9727.85
492.45	9686.89
492.65	9748.33
492.86	9631.60
493.06	9832.30
493.26	9502.58
493.46	9635.69
493.66	9828.20
493.86	9686.89
494.06	9639.79
494.26	9523.05
494.47	9981.80
494.67	9914.22
494.87	10252.13
495.07	10405.73
495.27	10483.55
495.47	10700.64
495.67	10553.18
495.87	10360.67
496.07	10106.73
496.28	10039.14
496.48	10006.38
496.68	9770.86
496.88	9607.02
497.08	9707.37
497.28	9543.53
497.48	9672.56
497.68	9426.80
497.88	9543.53
498.08	9668.46
498.29	9641.84
498.49	9600.88
498.69	9566.06
498.89	9455.47
499.09	9242.48
499.29	9191.28
499.49	9342.83
499.69	9389.94
499.89	9197.43
500.09	9529.20
500.29	9521.01
500.50	9451.38
500.70	9721.71
500.90	9670.51
501.10	9754.48
501.30	9488.24
501.50	9654.12
501.70	9617.26
501.90	9600.88
502.10	9658.22
502.30	9559.92
502.50	9437.04
502.70	9658.22
502.90	9715.56
503.10	9463.66
503.31	9475.95
503.51	9777.00
503.71	9531.25
503.91	9523.05
504.11	9541.49
504.31	9461.62
504.51	9545.58
504.71	9314.16
504.91	9222.00
505.11	9109.36
505.31	9310.07
505.51	9256.82
505.71	9236.34
505.91	9031.54
506.11	8963.96
506.31	9029.49
506.51	8943.48
506.71	9035.64
506.91	9113.46
507.11	9049.97
507.31	9158.52
507.51	8990.58
507.72	8951.67
507.92	8791.93
508.12	8781.69
508.32	8869.75
508.52	8830.84
508.72	8990.58
508.92	9013.11
509.12	8884.09
509.32	8761.21
509.52	8879.99
509.72	8994.68
509.92	8949.62
510.12	8793.98
510.32	8920.95
510.52	8929.14
510.72	8992.63
510.92	8740.73
511.12	8847.22
511.32	8847.22
511.52	8834.94
511.72	8853.37
511.92	9017.21
512.12	8787.83
512.32	8718.20
512.52	8816.51
512.72	8820.60
512.92	8707.96
513.12	8877.94
513.32	8650.62
513.52	8804.22
513.72	8736.63
513.92	8537.98
514.12	8554.37
514.32	8562.56
514.52	8570.75
514.72	8654.72
514.92	8570.75
515.12	8681.34
515.32	8927.10
515.52	8859.51
515.72	8920.95
515.92	9111.41
516.12	8847.22
516.32	8796.03
516.52	8712.06
516.72	8767.35
516.92	8669.05
517.12	8918.90
517.32	8810.36
517.51	8875.90
517.71	8890.23
517.91	9217.91
518.11	9162.61
518.31	9111.41
518.51	9170.80
518.71	9135.99
518.91	9019.25
519.11	8871.80
519.31	8859.51
519.51	8871.80
519.71	8904.57
519.91	9013.11
520.11	9105.27
520.31	9125.75
520.51	9076.60
520.71	9078.65
520.91	9170.80
521.11	9002.87
521.31	8933.24
521.51	8890.23
521.70	9273.20
521.90	9181.04
522.10	9080.69
522.30	9119.60
522.50	9103.22
522.70	9213.81
522.90	9015.16
523.10	9107.32
523.30	9193.33
523.50	9238.39
523.70	9285.49
523.90	9115.51
524.10	9156.47
524.30	9140.08
524.49	9256.82
524.69	9199.48
524.89	9256.82
525.09	9023.35
525.29	9142.13
525.49	9377.65
525.69	8988.53
525.89	8996.73
526.09	9172.85
526.29	9316.21
526.49	9058.17
526.68	9156.47
526.88	9068.41
527.08	9181.04
527.28	9058.17
527.48	9314.16
527.68	9402.22
527.88	9398.13
528.08	9222.00
528.28	9291.63
528.48	9375.60
528.67	9434.99
528.87	9506.67
529.07	9262.96
529.27	9289.59
529.47	9465.71
529.67	9146.23
529.87	9183.09
530.07	9279.35
530.26	9230.20
530.46	9260.91
530.66	9242.48
530.86	9090.93
531.06	9219.96
531.26	9086.84
531.46	9086.84
531.66	9265.01
531.85	9416.56
532.05	9418.61
532.25	9416.56
532.45	9340.79
532.65	9469.81
532.85	9385.84
533.05	9561.97
533.25	9420.66
533.44	9574.25
533.64	9578.35
533.84	9340.79
534.04	9725.80
534.24	9586.54
534.44	9762.67
534.63	9641.84
534.83	9443.18
535.03	9373.55
535.23	9156.47
535.43	9197.43
535.63	9138.04
535.83	9183.09
536.02	9379.70
536.22	9406.32
536.42	9389.94
536.62	9414.51
536.82	9545.58
537.02	9492.34
537.21	9568.11
537.41	9531.25
537.61	9647.98
537.81	9750.38
538.01	10035.05
538.21	10030.95
538.40	9879.40
538.60	9822.06
538.80	9678.70
539.00	9809.77
539.20	9488.24
539.39	9602.93
539.59	9774.95
539.79	9977.70
539.99	9654.12
540.19	9590.64
540.39	9754.48
540.58	9957.22
540.78	9738.09
540.98	9873.26
541.18	9633.64
541.38	9897.83
541.57	9889.64
541.77	9770.86
541.97	9766.76
542.17	9750.38
542.37	9873.26
542.56	9973.61
542.76	9770.86
542.96	10073.96
543.16	10102.63
543.35	10270.56
543.55	10229.60
543.75	10209.12
543.95	10047.33
544.15	10127.21
544.34	10084.20
544.54	10176.36
544.74	10094.44
544.94	10018.66
545.14	10016.62
545.33	10182.50
545.53	10112.87
545.73	10037.09
545.93	10202.98
546.12	10196.84
546.32	10153.83
546.52	10544.99
546.72	10311.52
546.91	10504.03
547.11	10319.71
547.31	10473.31
547.51	10289.00
547.70	9908.07
547.90	9781.10
548.10	9844.59
548.30	9717.61
548.50	9717.61
548.69	9471.86
548.89	9549.68
549.09	9723.76
549.29	9561.97
549.48	9277.30
549.68	9486.19
549.88	9318.26
550.07	9496.43
550.27	9420.66
550.47	9453.42
550.67	9770.86
550.86	9869.16
551.06	9946.98
551.26	10088.29
551.46	10291.04
551.65	9830.25
551.85	10166.12
552.05	9998.18
552.25	10143.59
552.44	10098.53
552.64	10061.67
552.84	10176.36
553.03	10028.90
553.23	9946.98
553.43	10033.00
553.63	9879.40
553.82	9973.61
554.02	10323.81
554.22	10289.00
554.41	10436.45
554.61	10221.41
554.81	10368.87
555.01	10065.77
555.20	10082.15
555.40	9955.18
555.60	9772.91
555.79	9695.08
555.99	9850.73
556.19	9369.46
556.38	9721.71
556.58	9414.51
556.78	9543.53
556.98	9314.16
557.17	9424.75
557.37	9338.74
557.57	9269.11
557.76	9162.61
557.96	9301.87
558.16	9539.44
558.35	9451.38
558.55	9621.36
558.75	9772.91
558.94	9826.15
559.14	10182.50
559.34	10121.06
559.53	10293.09
559.73	10358.63
559.93	10508.13
560.12	10682.20
560.32	10598.24
560.52	10622.81
560.71	10606.43
560.91	10512.22
561.11	10399.59
561.30	10424.16
561.50	10418.02
561.70	10438.50
561.89	10551.14
562.09	10624.86
562.29	10719.07
562.48	10723.16
562.68	10805.08
562.88	10485.60
563.07	10405.73
563.27	10291.04
563.47	10225.51
563.66	10245.99
563.86	10194.79
564.06	10268.52
564.25	10268.52
564.45	9969.51
564.64	9961.32
564.84	9871.21
565.04	9953.13
565.23	9830.25
565.43	9869.16
565.63	9973.61
565.82	9842.54
566.02	10051.43
566.22	10266.47
566.41	10354.53
566.61	10395.49
566.80	10372.96
567.00	10696.54
567.20	10921.82
567.39	11081.56
567.59	10964.82
567.78	11122.52
567.98	11388.75
568.18	11466.58
568.37	11743.05
568.57	11837.26
568.77	11927.37
568.96	12029.77
569.16	12054.34
569.35	12365.64
569.55	12425.03
569.75	12797.76
569.94	12922.68
570.14	13391.67
570.33	13395.76
570.53	13768.49
570.73	13672.24
570.92	13819.69
571.12	13707.05
571.31	13410.10
571.51	13016.89
571.71	13074.23
571.90	13655.86
572.10	13629.23
572.29	13848.36
572.49	14196.52
572.68	14079.79
572.88	14061.35
573.08	14356.26
573.27	14176.04
573.47	14604.07
573.66	15085.34
573.86	14821.15
574.05	14485.28
574.25	14475.04
574.45	14233.38
574.64	13791.02
574.84	13698.86
575.03	13819.69
575.23	13860.65
575.42	14192.42
575.62	14567.20
575.82	14120.74
576.01	14466.85
576.21	15271.70
576.40	15587.09
576.60	16742.14
576.79	17030.91
576.99	17213.18
577.18	16983.80
577.38	16457.48
577.57	16195.34
577.77	15427.35
577.97	15279.89
578.16	14958.36
578.36	14968.60
578.55	14626.59
578.75	14661.41
578.94	14702.37
579.14	14593.83
579.33	14481.19
579.53	14597.92
579.72	15439.64
579.92	16518.92
580.11	17508.08
580.31	18134.76
580.50	18605.80
580.70	19025.63
580.90	18396.90
581.09	17440.50
581.29	16996.09
581.48	16580.36
581.68	16019.21
581.87	15490.84
582.07	14862.11
582.26	14341.93
582.46	13840.17
582.65	13737.77
582.85	13684.53
583.04	13602.61
583.24	13967.15
583.43	14581.54
583.63	15263.51
583.82	15791.89
584.02	16213.77
584.21	16484.10
584.41	16641.79
584.60	16312.07
584.80	15986.44
584.99	15613.71
585.19	15302.42
585.38	15009.56
585.58	14636.83
585.77	14944.03
585.97	14821.15
586.16	15146.78
586.35	15048.47
586.55	15177.50
586.74	15146.78
586.94	15202.07
587.13	14970.65
587.33	14915.36
587.52	14432.04
587.72	14155.56
587.91	13766.45
588.11	13643.57
588.30	13492.02
588.50	13479.73
588.69	13055.80
588.89	13408.05
589.08	13129.53
589.28	12853.05
589.47	12902.20
589.66	12709.69
589.86	12660.54
590.05	12812.09
590.25	12650.30
590.44	12943.16
590.64	12898.11
590.83	13152.06
591.03	13424.44
591.22	13854.51
591.41	14386.98
591.61	14812.96
591.80	15318.81
592.00	16013.07
592.19	16221.96
592.39	16000.78
592.58	15697.68
592.78	15351.57
592.97	14573.35
593.16	14436.13
593.36	13741.87
593.55	13639.47
593.75	13633.33
593.94	13528.88
594.14	13455.15
594.33	13092.66
594.52	12988.22
594.72	13250.36
594.91	12795.71
595.11	12715.84
595.30	12418.88
595.49	12408.64
595.69	12814.14
595.88	12908.35
596.08	13315.89
596.27	13788.97
596.47	13807.41
596.66	13881.13
596.85	13977.39
597.05	14137.13
597.24	14421.80
597.44	14980.89
597.63	15550.23
597.82	16004.88
598.02	16154.38
598.21	16555.78
598.40	16586.50
598.60	16666.37
598.79	16502.53
598.99	16338.69
599.18	16389.89
599.37	16316.17
599.57	15761.17
599.76	15482.64
599.96	14628.64
600.15	14591.78
600.34	14239.53
600.54	13895.47
600.73	13635.38
600.92	13268.79
601.12	13100.86
601.31	13051.70
601.51	12873.53
601.70	13000.51
601.89	12861.24
602.09	13332.28
602.28	13635.38
602.47	14010.15
602.67	14280.49
602.86	14206.76
603.05	14370.60
603.25	14194.47
603.44	14161.70
603.63	14004.01
603.83	14260.01
604.02	14376.74
604.22	14444.32
604.41	14966.56
604.60	15099.67
604.80	15511.32
604.99	15496.98
605.18	15599.38
605.38	15712.02
605.57	15836.94
605.76	15449.88
605.96	15968.01
606.15	15898.38
606.34	16121.61
606.54	15785.74
606.73	15509.27
606.92	15372.05
607.12	14724.90
607.31	14642.98
607.50	14167.85
607.70	13989.67
607.89	13565.74
608.08	13201.21
608.28	12977.98
608.47	13186.87
608.66	13393.72
608.85	13256.50
609.05	13227.83
609.24	13072.18
609.43	13041.46
609.63	13311.80
609.82	13004.60
610.01	13147.96
610.21	13336.37
610.40	13369.14
610.59	13270.84
610.79	13307.70
610.98	13207.35
611.17	13287.22
611.36	13356.85
611.56	13459.25
611.75	13487.92
611.94	13762.35
612.14	13629.23
612.33	13752.11
612.52	13764.40
612.71	13483.83
612.91	13805.36
613.10	13571.89
613.29	14274.34
613.49	14561.06
613.68	14757.66
613.87	14993.18
614.06	15355.67
614.26	14954.27
614.45	14698.27
614.64	14331.69
614.83	14219.05
615.03	13924.14
615.22	13627.18
615.41	13412.15
615.60	13199.16
615.80	13145.91
615.99	13025.08
616.18	12756.80
616.38	12855.10
616.57	12689.21
616.76	12891.96
616.95	12975.93
617.15	12857.15
617.34	12762.94
617.53	13121.34
617.72	12836.67
617.92	12863.29
618.11	12699.45
618.30	12707.65
618.49	12990.27
618.68	13025.08
618.88	13084.47
619.07	13193.01
619.26	13123.38
619.45	13041.46
619.65	12793.66
619.84	12783.42
620.03	12631.87
620.22	12488.51
620.42	12930.87
620.61	13563.70
620.80	13426.48
620.99	13979.43
621.18	13913.90
621.38	14135.08
621.57	14206.76
621.76	13895.47
621.95	13891.37
622.15	14061.35
622.34	13731.63
622.53	13733.68
622.72	13764.40
622.91	13809.45
623.11	13854.51
623.30	14085.93
623.49	14067.50
623.68	14024.49
623.87	13872.94
624.07	13809.45
624.26	13633.33
624.45	13700.91
624.64	13463.35
624.83	13504.31
625.03	13475.63
625.22	13371.19
625.41	13553.46
625.60	13594.42
625.79	13580.08
625.98	13719.34
626.18	13625.14
626.37	13991.72
626.56	13715.25
626.75	13801.26
626.94	13389.62
627.14	13375.28
627.33	13305.65
627.52	13272.89
627.71	13393.72
627.90	13463.35
628.09	13662.00
628.29	13561.65
628.48	13657.90
628.67	13700.91
628.86	13532.98
629.05	13455.15
629.24	13254.45
629.43	13344.56
629.63	13193.01
629.82	13451.06
630.01	12900.16
630.20	13098.81
630.39	12943.16
630.58	12777.28
630.78	12568.38
630.97	12537.66
631.16	12588.86
631.35	12644.16
631.54	12609.34
631.73	12482.37
631.92	12597.06
632.11	12506.95
632.31	12570.43
632.50	12341.06
632.69	12451.65
632.88	12541.76
633.07	12445.51
633.26	12574.53
633.45	12285.76
633.65	12670.78
633.84	12334.92
634.03	12484.42
634.22	12474.18
634.41	12296.00
634.60	12660.54
634.79	12904.25
634.98	12785.47
635.17	12859.20
635.37	12898.11
635.56	13057.85
635.75	12853.05
635.94	12863.29
636.13	12730.17
636.32	12754.75
636.51	12646.21
636.70	12480.32
636.89	12207.94
637.08	12377.92
637.28	12478.27
637.47	12519.23
637.66	12406.59
637.85	12592.96
638.04	12308.29
638.23	12365.64
638.42	12236.61
638.61	12283.72
638.80	12121.93
638.99	12674.88
639.18	12379.97
639.38	12441.41
639.57	12621.63
639.76	12457.79
639.95	12490.56
640.14	12392.26
640.33	12359.49
640.52	12324.68
640.71	12281.67
640.90	12373.83
641.09	12238.66
641.28	12353.35
641.47	12259.14
641.66	12304.20
641.85	12435.27
642.04	12539.71
642.24	12345.16
642.43	12474.18
642.62	13053.75
642.81	12357.44
643.00	12394.31
643.19	12410.69
643.38	12291.91
643.57	12388.16
643.76	12543.81
643.95	12445.51
644.14	12445.51
644.33	12506.95
644.52	12375.88
644.71	12484.42
644.90	12142.41
645.09	12498.75
645.28	12216.13
645.47	12404.55
645.66	12261.19
645.85	12388.16
646.04	12298.05
646.23	12289.86
646.42	12429.12
646.61	12566.34
646.80	12570.43
646.99	12842.81
647.18	12783.42
647.37	13162.30
647.56	13178.68
647.75	13358.90
647.95	13471.54
648.14	13483.83
648.33	13389.62
648.52	13346.61
648.71	13463.35
648.90	13350.71
649.09	13307.70
649.28	13131.58
649.47	13010.75
649.66	12971.83
649.85	12869.44
650.04	13363.00
650.23	13156.15
650.42	12791.61
650.61	13031.23
650.79	13184.82
650.98	12957.50
651.17	13049.66
651.36	12838.72
651.55	13037.37
651.74	13365.04
651.93	13203.25
652.12	13219.64
652.31	13135.67
652.50	13172.54
652.69	13170.49
652.88	12988.22
653.07	12994.36
653.26	12859.20
653.45	13125.43
653.64	12953.40
653.83	12973.88
654.02	13319.99
654.21	14561.06
654.40	16729.86
654.59	19736.27
654.78	21886.64
654.97	23490.20
655.16	23690.90
655.35	23735.96
655.54	21956.27
655.73	19918.54
655.92	18075.37
656.11	17274.62
656.30	16166.67
656.48	15869.71
656.67	15044.38
656.86	14706.46
657.05	14130.98
657.24	14198.57
657.43	13963.05
657.62	13854.51
657.81	13752.11
658.00	13662.00
658.19	13580.08
658.38	13383.48
658.57	13254.45
658.76	13350.71
658.95	13260.60
659.13	13160.25
659.32	13057.85
659.51	13213.49
659.70	13035.32
659.89	13059.90
660.08	12949.31
660.27	13006.65
660.46	12984.12
660.65	13086.52
660.84	13066.04
661.03	13090.62
661.22	13231.93
661.40	12900.16
661.59	12949.31
661.78	13127.48
661.97	12930.87
662.16	12973.88
662.35	13043.51
662.54	12834.62
662.73	13299.51
662.92	13367.09
663.11	13592.37
663.29	13612.85
663.48	13481.78
663.67	13602.61
663.86	13221.69
664.05	13643.57
664.24	13328.18
664.43	13475.63
664.62	13457.20
664.80	13399.86
664.99	13324.08
665.18	13469.49
665.37	13350.71
665.56	13322.04
665.75	13358.90
665.94	13279.03
666.13	13033.27
666.31	13262.65
666.50	13303.60
666.69	13461.30
666.88	13422.39
667.07	13334.32
667.26	13223.73
667.45	13289.27
667.63	13420.34
667.82	13479.73
668.01	13256.50
668.20	13397.81
668.39	13408.05
668.58	13647.66
668.76	13569.84
668.95	13809.45
669.14	13506.35
669.33	13727.53
669.52	13618.99
669.71	13782.83
669.90	13885.23
670.08	13848.36
670.27	14163.75
670.46	14509.86
670.65	14616.35
670.84	14763.81
671.03	14894.88
671.21	14974.75
671.40	14726.94
671.59	14675.74
671.78	14538.53
671.97	14184.23
672.15	14149.42
672.34	13901.61
672.53	14219.05
672.72	14114.60
672.91	13858.60
673.09	14067.50
673.28	13971.24
673.47	13911.85
673.66	13895.47
673.85	13915.95
674.04	13977.39
674.22	13883.18
674.41	13803.31
674.60	13879.08
674.79	14008.11
674.98	14237.48
675.16	14032.68
675.35	14288.68
675.54	14389.03
675.73	14483.24
675.91	14120.74
676.10	14044.97
676.29	14262.05
676.48	14417.70
676.67	14346.02
676.85	14493.47
677.04	14606.11
677.23	14395.17
677.42	14571.30
677.60	14450.47
677.79	14563.11
677.98	14501.67
678.17	14542.63
678.36	14511.91
678.54	14628.64
678.73	14534.43
678.92	14493.47
679.11	14896.92
679.29	14763.81
679.48	14249.77
679.67	14473.00
679.86	14391.08
680.04	14370.60
680.23	14368.55
680.42	14370.60
680.61	14683.94
680.79	14704.42
680.98	14606.11
681.17	14507.81
681.36	14378.79
681.54	14442.28
681.73	14204.71
681.92	14059.31
682.11	14221.10
682.29	14229.29
682.48	14245.67
682.67	14186.28
682.85	14675.74
683.04	14454.56
683.23	14810.91
683.42	14751.52
683.60	14976.80
683.79	15126.30
683.98	15269.66
684.17	15685.39
684.35	15318.81
684.54	15623.95
684.73	15470.36
684.91	15425.30
685.10	15388.44
685.29	15167.26
685.48	14878.49
685.66	14974.75
685.85	14894.88
686.04	14970.65
686.22	14972.70
686.41	14802.72
686.60	14845.73
686.78	14698.27
686.97	14751.52
687.16	14790.43
687.35	14788.38
687.53	14679.84
687.72	14597.92
687.91	14577.44
688.09	14632.74
688.28	14874.40
688.47	15111.96
688.65	14761.76
688.84	14812.96
689.03	14796.57
689.21	15095.58
689.40	14817.05
689.59	14999.32
689.77	14903.07
689.96	15251.22
690.15	15148.82
690.33	15464.21
690.52	15560.47
690.71	15675.15
690.89	15138.58
691.08	15279.89
691.27	15283.99
691.45	15146.78
691.64	14997.28
691.83	15234.84
692.01	15005.47
692.20	15097.63
692.39	15105.82
692.57	15208.22
692.76	15091.48
692.95	15017.75
693.13	14976.80
693.32	14917.40
693.50	14896.92
693.69	15052.57
693.88	14962.46
694.06	15089.43
694.25	15077.15
694.44	15167.26
694.62	15167.26
694.81	15107.87
695.00	14966.56
695.18	14964.51
695.37	15097.63
695.55	15554.32
695.74	15630.10
695.93	15937.29
696.11	16250.63
696.30	16256.78
696.49	16123.66
696.67	16135.95
696.86	16150.28
697.04	15965.96
697.23	15650.58
697.42	15425.30
697.60	15673.10
697.79	15324.95
697.97	15318.81
698.16	15085.34
698.35	15032.09
698.53	15021.85
698.72	14937.88
698.90	14812.96
699.09	14995.23
699.28	14937.88
699.46	14935.84
699.65	14935.84
699.83	15068.95
700.02	14847.77
700.21	14958.36
700.39	14950.17
700.58	14944.03
700.76	15122.20
700.95	15114.01
701.13	15443.73
701.32	15478.55
701.51	15640.34
701.69	15546.13
701.88	15544.08
702.06	15636.24
702.25	15372.05
702.43	15161.11
702.62	15554.32
702.81	15185.69
702.99	15288.09
703.18	15142.68
703.36	15034.14
703.55	15140.63
703.73	15052.57
703.92	14948.12
704.10	14939.93
704.29	14825.25
704.48	14976.80
704.66	14853.92
704.85	14679.84
705.03	14874.40
705.22	14941.98
705.40	15269.66
705.59	15310.61
705.77	15626.00
705.96	15882.00
706.14	16150.28
706.33	16391.94
706.51	16176.91
706.70	16408.33
706.89	16441.09
707.07	16486.15
707.26	16269.06
707.44	16099.08
707.63	15935.24
707.81	15925.00
708.00	15925.00
708.18	15890.19
708.37	15634.19
708.55	15394.58
708.74	15451.92
708.92	15333.14
709.11	15314.71
709.29	15183.64
709.48	15419.16
709.66	15679.25
709.85	15349.53
710.03	15546.13
710.22	15357.72
710.40	15443.73
710.59	15150.87
710.77	15357.72
710.96	15466.26
711.14	15437.59
711.33	15310.61
711.51	15681.30
711.70	15607.57
711.88	15918.86
712.07	15970.06
712.25	16142.09
712.44	16023.31
712.62	15984.40
712.81	16062.22
712.99	16105.23
713.18	15982.35
713.36	15988.49
713.54	16072.46
713.73	15994.64
713.91	15875.85
714.10	16187.14
714.28	16215.82
714.47	16230.15
714.65	15937.29
714.84	15828.75
715.02	15720.21
715.21	15484.69
715.39	15464.21
715.58	15539.99
715.76	15044.38
715.94	15316.76
716.13	15394.58
716.31	15286.04
716.50	15292.18
716.68	15517.46
716.87	15793.94
717.05	16023.31
717.24	15894.29
717.42	16035.60
717.60	15832.85
717.79	15990.54
717.97	15963.92
718.16	16111.37
718.34	15669.01
718.53	16002.83
718.71	15738.64
718.89	15826.70
719.08	15474.45
719.26	15605.52
719.45	15410.96
719.63	15566.61
719.82	15621.91
720.00	15992.59
720.18	15777.55
720.37	15595.28
720.55	15441.68
720.74	15453.97
720.92	15525.65
721.10	15542.03
721.29	15503.12
721.47	15787.79
721.66	15509.27
721.84	15652.63
722.02	15550.23
722.21	15494.93
722.39	15601.43
722.58	15613.71
722.76	15521.56
722.94	15701.78
723.13	15357.72
723.31	15388.44
723.50	15433.49
723.68	15712.02
723.86	15261.46
724.05	15697.68
724.23	15632.15
724.41	15759.12
724.60	15906.57
724.78	15777.55
724.97	15865.61
725.15	16107.27
725.33	15515.41
725.52	15855.37
725.70	15769.36
725.88	15920.91
726.07	15632.15
726.25	15826.70
726.44	15675.15
726.62	16039.69
726.80	15937.29
726.99	16084.75
727.17	16045.84
727.35	15982.35
727.54	15890.19
727.72	16224.01
727.90	15970.06
728.09	16082.70
728.27	15988.49
728.45	16033.55
728.64	16097.03
728.82	16049.93
729.00	16185.10
729.19	16371.46
729.37	16441.09
729.55	16541.44
729.74	16774.91
729.92	16791.30
730.10	17305.34
730.29	17170.17
730.47	17137.40
730.65	17114.87
730.84	17094.40
731.02	17071.87
731.20	16545.54
731.39	16989.95
731.57	16852.73
731.75	17213.18
731.94	16779.01
732.12	17202.94
732.30	16779.01
732.49	17014.52
732.67	16713.47
732.85	17123.07
733.03	16627.46
733.22	17084.16
733.40	17057.53
733.58	17102.59
733.77	16762.62
733.95	17028.86
734.13	16664.32
734.32	16793.34
734.50	16791.30
734.68	17032.96
734.86	16850.69
735.05	17180.41
735.23	16989.95
735.41	16926.46
735.60	16891.65
735.78	16887.55
735.96	16600.83
736.14	16822.02
736.33	16770.82
736.51	17090.30
736.69	16566.02
736.87	16375.56
737.06	16291.59
737.24	16348.93
737.42	16594.69
737.61	16680.71
737.79	16576.26
737.97	17086.20
738.15	16785.15
738.34	17037.05
738.52	17059.58
738.70	17080.06
738.88	16973.56
739.07	16744.19
739.25	16029.45
739.43	16336.65
739.61	16164.62
739.80	16006.92
739.98	15910.67
740.16	15802.13
740.34	15836.94
740.52	15998.73
740.71	15527.70
740.89	15941.39
741.07	15666.96
741.25	16033.55
741.44	15843.09
741.62	16023.31
741.80	16181.00
741.98	16162.57
742.17	15990.54
742.35	16133.90
742.53	15554.32
742.71	15750.93
742.89	15494.93
743.08	15791.89
743.26	15630.10
743.44	15521.56
743.62	15388.44
743.80	15617.81
743.99	15417.11
744.17	15585.04
744.35	15355.67
744.53	15310.61
744.71	15222.55
744.90	15544.08
745.08	15562.51
745.26	15544.08
745.44	15435.54
745.62	15664.91
745.81	15736.59
745.99	15533.84
746.17	15728.40
746.35	15542.03
746.53	15576.85
746.72	15730.45
746.90	15378.20
747.08	15529.75
747.26	15193.88
747.44	15339.29
747.62	15099.67
747.81	15341.33
747.99	15699.73
748.17	15462.16
748.35	15550.23
748.53	15427.35
748.71	15566.61
748.90	15933.20
749.08	16101.13
749.26	16203.53
749.44	16248.58
749.62	15750.93
749.80	15974.16
749.99	15871.76
750.17	16166.67
750.35	15640.34
750.53	15943.44
750.71	15882.00
750.89	15793.94
751.07	15947.53
751.26	15718.16
751.44	15855.37
751.62	15578.90
751.80	15613.71
751.98	15740.69
752.16	15640.34
752.34	15732.50
752.53	15986.44
752.71	15568.66
752.89	16094.99
753.07	16074.51
753.25	15855.37
753.43	15904.53
753.61	15808.27
753.79	15879.95
753.98	15834.89
754.16	15953.68
754.34	15996.68
754.52	16359.17
754.70	16207.62
754.88	16228.10
755.06	16684.80
755.24	16682.75
755.42	16928.51
755.60	17104.64
755.79	17479.41
755.97	17727.22
756.15	18145.00
756.33	18218.73
756.51	18589.41
756.69	18618.08
756.87	18743.01
757.05	18466.53
757.23	18681.57
757.41	18433.77
757.60	18071.28
757.78	18177.77
757.96	18228.97
758.14	18065.13
758.32	18343.66
758.50	18231.02
758.68	18136.81
758.86	18472.68
759.04	18570.98
759.22	18929.38
759.40	18996.96
759.58	19300.06
759.76	19523.29
759.94	19359.45
760.13	19791.57
760.31	19734.23
760.49	19672.79
760.67	19496.66
760.85	19703.51
761.03	19447.51
761.21	19590.87
761.39	19566.29
761.57	19754.71
761.75	19756.75
761.93	20242.12
762.11	19758.80
762.29	20342.47
762.47	20076.24
762.65	20285.13
762.83	20293.32
763.01	20473.54
763.19	20821.70
763.37	21153.47
763.55	21368.51
763.73	21870.26
763.91	21669.56
764.09	22095.53
764.27	22095.53
764.45	21622.45
764.64	21536.44
764.82	21298.88
765.00	21225.15
765.18	21253.82
765.36	20719.30
765.54	20575.94
765.72	20346.57
765.90	20758.21
766.08	20115.15
766.26	20238.03
766.44	20414.15
766.62	20360.91
766.80	20942.53
766.98	20960.96
767.16	21089.98
767.34	21167.80
767.52	21266.11
767.70	21356.22
767.88	21241.53
768.06	21106.37
768.24	21065.41
768.42	20881.09
768.60	20772.55
768.78	20459.21
768.96	20625.09
769.13	20514.50
769.31	20129.48
769.49	20231.88
769.67	20098.77
769.85	20532.93
770.03	20494.02
770.21	20240.08
770.39	20405.96
770.57	20121.29
770.75	20104.91
770.93	20072.14
771.11	19771.09
771.29	19992.27
771.47	19584.73
771.65	19754.71
771.83	19723.99
772.01	19369.69
772.19	19683.03
772.37	19429.08
772.55	18919.14
772.73	19357.40
772.91	18749.15
773.09	18953.95
773.27	18675.43
773.44	18956.00
773.62	18669.28
773.80	18722.53
773.98	18777.83
774.16	18464.49
774.34	18585.32
774.52	18462.44
774.70	18362.09
774.88	18398.95
775.06	18450.15
775.24	18122.48
775.42	18114.28
775.60	18263.79
775.78	18026.22
775.95	18081.52
776.13	18208.49
776.31	18036.46
776.49	18007.79
776.67	17727.22
776.85	18011.89
777.03	17860.34
777.21	17788.66
777.39	17684.21
777.57	17954.54
777.75	17843.95
777.92	18085.61
778.10	17590.00
778.28	17407.73
778.46	17716.98
778.64	17442.55
778.82	17512.18
779.00	17272.57
779.18	17499.89
779.36	17182.46
779.53	17188.60
779.71	17649.39
779.89	17880.82
780.07	17784.56
780.25	18085.61
780.43	18087.66
780.61	17759.98
780.79	17860.34
780.96	17835.76
781.14	17430.26
781.32	17563.38
781.50	17288.95
781.68	17565.43
781.86	17475.32
782.04	17549.04
782.21	17407.73
782.39	17360.63
782.57	17235.70
782.75	17108.73
782.93	17065.72
783.11	16871.17
783.29	16400.13
783.46	16799.49
783.64	16643.84
783.82	16846.59
784.00	16692.99
784.18	16842.50
784.36	16594.69
784.54	16858.88
784.71	17047.29
784.89	16817.92
785.07	16918.27
785.25	16889.60
785.43	16539.40
785.60	16740.10
785.78	16168.71
785.96	16502.53
786.14	16137.99
786.32	16543.49
786.50	16217.86
786.67	16379.65
786.85	16496.39
787.03	16854.78
787.21	16889.60
787.39	16824.06
787.56	16537.35
787.74	17131.26
787.92	16846.59
788.10	16490.24
788.28	16574.21
788.45	16525.06
788.63	16166.67
788.81	16293.64
788.99	15976.20
789.17	15998.73
789.34	16121.61
789.52	15935.24
789.70	15925.00
789.88	15933.20
790.06	15736.59
790.23	16113.42
790.41	16244.49
790.59	15970.06
790.77	15642.39
790.95	16054.03
791.12	15728.40
791.30	16041.74
791.48	15648.53
791.66	15644.43
791.83	15517.46
792.01	15841.04
792.19	15955.72
792.37	15802.13
792.54	16170.76
792.72	16379.65
792.90	16584.45
793.08	16918.27
793.25	16811.78
793.43	16803.58
793.61	16582.40
793.79	16332.55
793.96	16181.00
794.14	16162.57
794.32	15812.37
794.50	16066.31
794.67	15529.75
794.85	15425.30
795.03	15527.70
795.21	15114.01
795.38	15269.66
795.56	14956.32
795.74	14927.64
795.92	14722.85
796.09	14737.18
796.27	14548.77
796.45	14921.50
796.62	14915.36
796.80	14882.59
796.98	14827.29
797.16	14743.33
797.33	14722.85
797.51	14704.42
797.69	14622.50
797.86	14489.38
798.04	14640.93
798.22	14575.39
798.40	14522.15
798.57	14556.96
798.75	14690.08
798.93	14479.14
799.10	14429.99
799.28	14393.12
799.46	14378.79
799.63	14198.57
799.81	14270.25
799.99	14151.46
800.17	14475.04
800.34	13967.15
800.52	14343.97
800.70	14090.02
800.87	14206.76
801.05	14028.59
801.23	14176.04
801.40	13915.95
801.58	14120.74
801.76	13860.65
801.93	13903.66
802.11	14069.55
802.29	14335.78
802.46	13930.28
802.64	14159.66
802.82	13920.04
802.99	13893.42
803.17	13846.32
803.35	13756.21
803.52	13801.26
803.70	13764.40
803.88	14077.74
804.05	13958.96
804.23	13850.41
804.41	14108.46
804.58	14014.25
804.76	14122.79
804.94	14204.71
805.11	14206.76
805.29	14192.42
805.46	14423.84
805.64	14210.86
805.82	14190.38
805.99	14196.52
806.17	13893.42
806.35	14096.17
806.52	14006.06
806.70	13958.96
806.87	14038.83
807.05	13858.60
807.23	13944.62
807.40	13752.11
807.58	13805.36
807.76	13754.16
807.93	13856.56
808.11	13344.56
808.28	13522.74
808.46	13426.48
808.64	13481.78
808.81	13229.88
808.99	13551.41
809.16	13453.11
809.34	13610.80
809.52	13369.14
809.69	13551.41
809.87	13387.57
810.04	13473.59
810.22	13508.40
810.40	13322.04
810.57	13432.63
810.75	13262.65
810.92	13379.38
811.10	13391.67
811.28	13055.80
811.45	13123.38
811.63	13238.07
811.80	13125.43
811.98	13188.92
812.15	13268.79
812.33	13168.44
812.51	13242.17
812.68	13432.63
812.86	13498.16
813.03	13399.86
813.21	13467.44
813.38	13358.90
813.56	13317.94
813.74	13025.08
813.91	13160.25
814.09	13047.61
814.26	12916.54
814.44	13037.37
814.61	13000.51
814.79	12961.59
814.96	13049.66
815.14	12922.68
815.31	13190.97
815.49	13113.14
815.67	13180.73
815.84	13068.09
816.02	13117.24
816.19	12992.31
816.37	12918.59
816.54	13041.46
816.72	13219.64
816.89	12824.38
817.07	12822.33
817.24	12857.15
817.42	12803.90
817.59	12633.92
817.77	12945.21
817.94	12570.43
818.12	12711.74
818.29	12709.69
818.47	12717.89
818.64	12687.17
818.82	12758.85
818.99	12595.01
819.17	12826.43
819.34	12943.16
819.52	13100.86
819.69	13002.55
819.87	13043.51
820.04	12941.11
820.22	13172.54
820.39	12980.03
820.57	12672.83
820.74	12842.81
820.92	12853.05
821.09	12623.68
821.27	12521.28
821.44	12980.03
821.62	12533.57
821.79	12547.90
821.97	12674.88
822.14	12764.99
822.32	12545.86
822.49	12519.23
822.67	12259.14
822.84	12400.45
823.02	12478.27
823.19	12382.02
823.37	12431.17
823.54	12629.82
823.72	12209.99
823.89	12433.22
824.06	12265.28
824.24	12519.23
824.41	12599.10
824.59	12312.39
824.76	12429.12
824.94	12437.31
825.11	12334.92
825.29	12537.66
825.46	12517.18
825.63	12894.01
825.81	12676.93
825.98	12803.90
826.16	12775.23
826.33	12742.46
826.51	12832.57
826.68	12889.92
826.86	12787.52
827.03	12564.29
827.20	12388.16
827.38	12128.07
827.55	12371.78
827.73	12201.80
827.90	12363.59
828.07	12240.71
828.25	12070.73
828.42	12121.93
828.60	12064.58
828.77	12103.50
828.95	11923.27
829.12	12076.87
829.29	12005.19
829.47	11716.43
829.64	11937.61
829.82	11882.31
829.99	12048.20
830.16	11800.40
830.34	11806.54
830.51	11501.39
830.69	11771.72
830.86	11579.22
831.03	11706.19
831.21	11591.50
831.38	11839.31
831.55	11679.57
831.73	12011.34
831.90	11831.12
832.08	11722.57
832.25	11769.68
832.42	11673.42
832.60	11556.69
832.77	11874.12
832.94	11652.94
833.12	11722.57
833.29	11775.82
833.47	11675.47
833.64	11685.71
833.81	11689.81
833.99	11835.21
834.16	11394.90
834.33	11487.06
834.51	11525.97
834.68	11536.21
834.85	11538.26
835.03	11644.75
835.20	11726.67
835.37	11534.16
835.55	11409.23
835.72	11517.78
835.90	11284.31
836.07	11263.83
836.24	11427.67
836.42	11382.61
836.59	11501.39
836.76	11384.66
836.94	11335.51
837.11	11298.64
837.28	11241.30
837.46	11085.65
837.63	11239.25
837.80	10999.64
837.97	11362.13
838.15	11067.22
838.32	11300.69
838.49	11214.68
838.67	11249.49
838.84	10932.06
839.01	11169.62
839.19	11259.73
839.36	11224.92
839.53	11274.07
839.71	11218.77
839.88	11368.27
840.05	11372.37
840.22	11315.03
840.40	11288.40
840.57	11190.10
840.74	11067.22
840.92	11171.67
841.09	11157.33
841.26	10884.95
841.43	11093.85
841.61	10911.58
841.78	11108.18
841.95	10899.29
842.13	11011.93
842.30	11085.65
842.47	11081.56
842.64	11052.89
842.82	11210.58
842.99	10962.78
843.16	11003.74
843.34	10952.54
843.51	11024.22
843.68	10968.92
843.85	10995.54
844.03	10829.66
844.20	10993.50
844.37	11073.37
844.54	10915.67
844.72	10846.04
844.89	10954.58
845.06	10571.61
845.23	10723.16
845.41	10825.56
845.58	10796.89
845.75	10805.08
845.92	10964.82
846.10	10936.15
846.27	11079.51
846.44	10981.21
846.61	10667.87
846.78	10487.65
846.96	10874.71
847.13	10776.41
847.30	10723.16
847.47	10923.87
847.65	10614.62
847.82	10749.79
847.99	10669.92
848.16	10893.15
848.33	10817.37
848.51	10637.15
848.68	10641.25
848.85	10682.20
849.02	10723.16
849.19	10461.02
849.37	10747.74
849.54	10635.10
849.71	10637.15
849.88	10571.61
850.05	10647.39
850.23	10553.18
850.40	10325.86
850.57	10385.25
850.74	10387.30
850.91	10391.39
851.09	10397.54
851.26	10436.45
851.43	10526.56
851.60	10549.09
851.77	10538.85
851.95	10487.65
852.12	10538.85
852.29	10352.48
852.46	10461.02
852.63	10659.68
852.80	10454.88
852.98	10370.91
853.15	10557.28
853.32	10477.41
853.49	10409.83
853.66	10327.91
853.83	10458.98
854.01	10356.58
854.18	10514.27
854.35	10205.03
854.52	10340.19
854.69	9985.90
854.86	10235.75
855.03	10264.42
855.21	10217.32
855.38	10514.27
855.55	10157.92
855.72	10106.73
855.89	10248.04
856.06	10399.59
856.23	10303.33
856.41	10241.89
856.58	10274.66
856.75	10045.29
856.92	9944.94
857.09	10098.53
857.26	10192.74
857.43	10096.49
857.60	10168.16
857.78	9854.83
857.95	9777.00
858.12	9957.22
858.29	9918.31
858.46	9906.02
858.63	9887.59
858.80	9883.50
858.97	10006.38
859.14	9973.61
859.32	9815.91
859.49	9822.06
859.66	9969.51
859.83	10051.43
860.00	9777.00
860.17	9813.87
860.34	9723.76
860.51	9770.86
860.68	9713.52
860.85	9584.49
861.02	9666.41
861.20	9746.28
861.37	9801.58
861.54	9797.48
861.71	9768.81
861.88	9731.95
862.05	9664.36
862.22	9660.27
862.39	9512.81
862.56	9613.17
862.73	9566.06
862.90	9457.52
863.07	9584.49
863.24	9578.35
863.41	9398.13
863.59	9254.77
863.76	9736.04
863.93	9342.83
864.10	9430.90
864.27	9207.67
864.44	9160.56
864.61	9400.18
864.78	9234.29
864.95	9215.86
865.12	9217.91
865.29	9191.28
865.46	9443.18
865.63	9207.67
865.80	9140.08
865.97	9297.78
866.14	9226.10
866.31	9209.72
866.48	9158.52
866.65	9199.48
866.82	9101.17
866.99	8986.49
867.16	9275.25
867.33	8923.00
867.50	8884.09
867.67	8957.82
867.84	8861.56
868.01	8822.65
868.18	8843.13
868.35	8904.57
868.52	8869.75
868.69	9140.08
868.86	8826.75
869.03	8898.42
869.20	8818.55
869.37	8781.69
869.54	8830.84
869.71	8761.21
869.88	8710.01
870.05	8621.95
870.22	8675.20
870.39	8566.65
870.56	8578.94
870.73	8437.63
870.90	8591.23
871.07	8576.89
871.24	8525.69
871.41	8476.54
871.58	8464.25
871.75	8316.80
871.92	8386.43
872.09	8281.99
872.26	8333.18
872.43	8312.71
872.60	8357.76
872.77	8349.57
872.94	8150.92
873.11	8171.40
873.28	8175.49
873.45	7958.41
873.62	8157.06
873.79	8124.29
873.96	7819.14
874.13	8036.23
874.30	8036.23
874.47	7939.97
874.64	8015.75
874.80	7966.60
874.97	7931.78
875.14	7911.30
875.31	7817.10
875.48	7716.75
875.65	7864.20
875.82	7939.97
875.99	7792.52
876.16	7696.27
876.33	7749.51
876.50	7718.79
876.67	7673.74
876.84	7757.71
877.01	7643.02
877.17	7602.06
877.34	7804.81
877.51	7651.21
877.68	7516.05
877.85	7481.23
878.02	7706.51
878.19	7503.76
878.36	7391.12
878.53	7393.17
878.70	7516.05
878.87	7407.50
879.03	7159.70
879.20	7284.62
879.37	7346.06
879.54	7253.91
879.71	7174.03
879.88	7266.19
880.05	7184.27
880.22	7208.85
880.39	7180.18
880.55	7040.92
880.72	6952.85
880.89	7032.72
881.06	6930.33
881.23	6967.19
881.40	6877.08
881.57	6963.09
881.74	6909.85
881.90	6952.85
882.07	6864.79
882.24	6860.70
882.41	6965.14
882.58	6664.09
882.75	6698.91
882.92	6659.99
883.08	6698.91
883.25	6604.70
883.42	6571.93
883.59	6471.58
883.76	6389.66
883.93	6451.10
884.09	6573.98
884.26	6432.67
884.43	6510.49
884.60	6459.29
884.77	6274.98
884.94	6326.18
885.10	6487.96
885.27	6418.33
885.44	6385.57
885.61	6170.53
885.78	6150.05
885.95	6195.11
886.11	6143.91
886.28	6225.82
886.45	6127.52
886.62	5965.73
886.79	6043.56
886.96	5969.83
887.12	5947.30
887.29	5945.25
887.46	5953.45
887.63	5951.40
887.80	5906.34
887.96	5797.80
888.13	5967.78
888.30	5779.37
888.47	5873.57
888.64	5654.44
888.80	5717.93
888.97	5685.16
889.14	5642.15
889.31	5537.71
889.47	5695.40
889.64	5431.21
889.81	5597.10
889.98	5361.58
890.15	5435.31
890.31	5351.34
890.48	5351.34
890.65	5351.34
890.82	5351.34
890.98	5351.34
891.15	5351.34
>>>>>End Processed Spectral Data<<<<<
