SpectraSuite Data File
++++++++++++++++++++++++++++++++++++
Date: Fri Jan 24 16:47:50 MST 2020
User: Molly
Dark Spectrum Present: Yes
Reference Spectrum Present: Yes
Number of Sampled Component Spectra: 1
Spectrometers: USB4E03280
Integration Time (usec): 32000 (USB4E03280)
Spectra Averaged: 1 (USB4E03280)
Boxcar Smoothing: 0 (USB4E03280)
Correct for Electrical Dark: No (USB4E03280)
Strobe/Lamp Enabled: Yes (USB4E03280)
Correct for Detector Non-linearity: No (USB4E03280)
Correct for Stray Light: No (USB4E03280)
Number of Pixels in Processed Spectrum: 3648
>>>>>Begin Processed Spectral Data<<<<<
177.66	1097.71
177.88	1097.71
178.10	1097.71
178.32	1165.29
178.54	1261.55
178.76	1239.02
178.98	1218.54
179.19	1216.49
179.41	1191.92
179.63	1216.49
179.85	1222.64
180.07	1275.88
180.29	1284.08
180.51	1222.64
180.72	1202.16
180.94	1257.45
181.16	1279.98
181.38	1304.56
181.60	1243.12
181.82	1282.03
182.04	1259.50
182.25	1179.63
182.47	1251.31
182.69	1288.17
182.91	1230.83
183.13	1222.64
183.35	1257.45
183.56	1282.03
183.78	1265.64
184.00	1202.16
184.22	1265.64
184.44	1247.21
184.66	1228.78
184.87	1216.49
185.09	1226.73
185.31	1243.12
185.53	1277.93
185.75	1202.16
185.97	1173.49
186.18	1165.29
186.40	1206.25
186.62	1220.59
186.84	1200.11
187.06	1157.10
187.28	1243.12
187.49	1243.12
187.71	1296.36
187.93	1294.32
188.15	1191.92
188.37	1232.88
188.59	1214.45
188.80	1239.02
189.02	1204.21
189.24	1277.93
189.46	1232.88
189.68	1206.25
189.89	1196.01
190.11	1163.25
190.33	1333.23
190.55	1282.03
190.77	1245.16
190.98	1232.88
191.20	1200.11
191.42	1300.46
191.64	1269.74
191.86	1214.45
192.07	1230.83
192.29	1234.93
192.51	1271.79
192.73	1247.21
192.95	1300.46
193.16	1183.73
193.38	1314.80
193.60	1255.40
193.82	1261.55
194.04	1167.34
194.25	1320.94
194.47	1241.07
194.69	1277.93
194.91	1228.78
195.13	1263.60
195.34	1187.82
195.56	1275.88
195.78	1171.44
196.00	1267.69
196.22	1234.93
196.43	1261.55
196.65	1245.16
196.87	1253.36
197.09	1220.59
197.30	1261.55
197.52	1273.84
197.74	1273.84
197.96	1220.59
198.18	1234.93
198.39	1210.35
198.61	1263.60
198.83	1288.17
199.05	1200.11
199.26	1275.88
199.48	1247.21
199.70	1232.88
199.92	1208.30
200.13	1247.21
200.35	1236.97
200.57	1193.97
200.79	1251.31
201.00	1189.87
201.22	1212.40
201.44	1316.84
201.66	1263.60
201.88	1251.31
202.09	1161.20
202.31	1269.74
202.53	1288.17
202.75	1179.63
202.96	1245.16
203.18	1269.74
203.40	1202.16
203.62	1267.69
203.83	1361.90
204.05	1277.93
204.27	1251.31
204.49	1187.82
204.70	1210.35
204.92	1214.45
205.14	1312.75
205.35	1218.54
205.57	1234.93
205.79	1253.36
206.01	1208.30
206.22	1220.59
206.44	1310.70
206.66	1167.34
206.88	1290.22
207.09	1288.17
207.31	1275.88
207.53	1228.78
207.75	1236.97
207.96	1247.21
208.18	1279.98
208.40	1177.58
208.61	1300.46
208.83	1261.55
209.05	1296.36
209.27	1234.93
209.48	1247.21
209.70	1275.88
209.92	1251.31
210.14	1232.88
210.35	1253.36
210.57	1261.55
210.79	1294.32
211.00	1220.59
211.22	1273.84
211.44	1189.87
211.66	1193.97
211.87	1241.07
212.09	1222.64
212.31	1243.12
212.52	1267.69
212.74	1181.68
212.96	1243.12
213.17	1204.21
213.39	1267.69
213.61	1292.27
213.83	1150.96
214.04	1275.88
214.26	1247.21
214.48	1294.32
214.69	1247.21
214.91	1288.17
215.13	1265.64
215.34	1202.16
215.56	1230.83
215.78	1290.22
216.00	1269.74
216.21	1226.73
216.43	1165.29
216.65	1191.92
216.86	1292.27
217.08	1271.79
217.30	1261.55
217.51	1230.83
217.73	1226.73
217.95	1296.36
218.16	1327.08
218.38	1208.30
218.60	1292.27
218.81	1241.07
219.03	1261.55
219.25	1316.84
219.46	1236.97
219.68	1187.82
219.90	1265.64
220.11	1331.18
220.33	1212.40
220.55	1304.56
220.76	1279.98
220.98	1222.64
221.20	1282.03
221.41	1282.03
221.63	1263.60
221.85	1322.99
222.06	1284.08
222.28	1222.64
222.50	1208.30
222.71	1183.73
222.93	1224.69
223.15	1234.93
223.36	1265.64
223.58	1251.31
223.80	1279.98
224.01	1232.88
224.23	1363.95
224.45	1253.36
224.66	1175.53
224.88	1191.92
225.10	1216.49
225.31	1267.69
225.53	1259.50
225.75	1193.97
225.96	1234.93
226.18	1230.83
226.39	1200.11
226.61	1173.49
226.83	1247.21
227.04	1279.98
227.26	1298.41
227.48	1294.32
227.69	1279.98
227.91	1245.16
228.13	1271.79
228.34	1275.88
228.56	1318.89
228.77	1259.50
228.99	1214.45
229.21	1226.73
229.42	1196.01
229.64	1265.64
229.86	1236.97
230.07	1294.32
230.29	1282.03
230.50	1216.49
230.72	1230.83
230.94	1241.07
231.15	1273.84
231.37	1292.27
231.58	1286.12
231.80	1257.45
232.02	1253.36
232.23	1200.11
232.45	1282.03
232.67	1236.97
232.88	1245.16
233.10	1312.75
233.31	1243.12
233.53	1247.21
233.75	1234.93
233.96	1214.45
234.18	1210.35
234.39	1243.12
234.61	1292.27
234.83	1314.80
235.04	1206.25
235.26	1239.02
235.47	1177.58
235.69	1163.25
235.91	1228.78
236.12	1236.97
236.34	1273.84
236.55	1208.30
236.77	1290.22
236.99	1204.21
237.20	1255.40
237.42	1191.92
237.63	1302.51
237.85	1241.07
238.06	1263.60
238.28	1171.44
238.50	1245.16
238.71	1208.30
238.93	1228.78
239.14	1325.04
239.36	1253.36
239.58	1148.91
239.79	1279.98
240.01	1271.79
240.22	1179.63
240.44	1306.60
240.65	1218.54
240.87	1224.69
241.09	1208.30
241.30	1288.17
241.52	1230.83
241.73	1241.07
241.95	1216.49
242.16	1224.69
242.38	1275.88
242.59	1275.88
242.81	1337.32
243.03	1253.36
243.24	1228.78
243.46	1259.50
243.67	1253.36
243.89	1273.84
244.10	1210.35
244.32	1243.12
244.53	1245.16
244.75	1308.65
244.97	1204.21
245.18	1241.07
245.40	1339.37
245.61	1239.02
245.83	1230.83
246.04	1228.78
246.26	1191.92
246.47	1212.40
246.69	1224.69
246.90	1198.06
247.12	1243.12
247.34	1230.83
247.55	1257.45
247.77	1314.80
247.98	1255.40
248.20	1230.83
248.41	1210.35
248.63	1255.40
248.84	1243.12
249.06	1214.45
249.27	1279.98
249.49	1232.88
249.70	1202.16
249.92	1247.21
250.13	1257.45
250.35	1245.16
250.56	1232.88
250.78	1261.55
251.00	1267.69
251.21	1275.88
251.43	1245.16
251.64	1267.69
251.86	1232.88
252.07	1236.97
252.29	1288.17
252.50	1290.22
252.72	1269.74
252.93	1261.55
253.15	1316.84
253.36	1210.35
253.58	1306.60
253.79	1239.02
254.01	1282.03
254.22	1241.07
254.44	1185.77
254.65	1243.12
254.87	1243.12
255.08	1245.16
255.30	1288.17
255.51	1163.25
255.73	1273.84
255.94	1257.45
256.16	1279.98
256.37	1222.64
256.59	1249.26
256.80	1232.88
257.02	1228.78
257.23	1191.92
257.45	1257.45
257.66	1214.45
257.88	1228.78
258.09	1212.40
258.31	1308.65
258.52	1216.49
258.74	1253.36
258.95	1263.60
259.16	1234.93
259.38	1222.64
259.59	1314.80
259.81	1214.45
260.02	1279.98
260.24	1196.01
260.45	1259.50
260.67	1259.50
260.88	1302.51
261.10	1292.27
261.31	1241.07
261.53	1286.12
261.74	1267.69
261.96	1228.78
262.17	1269.74
262.39	1318.89
262.60	1294.32
262.81	1310.70
263.03	1296.36
263.24	1234.93
263.46	1302.51
263.67	1212.40
263.89	1333.23
264.10	1210.35
264.32	1226.73
264.53	1234.93
264.75	1290.22
264.96	1214.45
265.17	1245.16
265.39	1249.26
265.60	1255.40
265.82	1200.11
266.03	1253.36
266.25	1286.12
266.46	1148.91
266.68	1224.69
266.89	1206.25
267.10	1253.36
267.32	1306.60
267.53	1296.36
267.75	1247.21
267.96	1294.32
268.18	1306.60
268.39	1292.27
268.61	1224.69
268.82	1247.21
269.03	1286.12
269.25	1290.22
269.46	1263.60
269.68	1292.27
269.89	1191.92
270.11	1284.08
270.32	1316.84
270.53	1267.69
270.75	1339.37
270.96	1226.73
271.18	1279.98
271.39	1284.08
271.60	1296.36
271.82	1284.08
272.03	1257.45
272.25	1261.55
272.46	1302.51
272.68	1228.78
272.89	1214.45
273.10	1259.50
273.32	1267.69
273.53	1312.75
273.75	1204.21
273.96	1222.64
274.17	1267.69
274.39	1292.27
274.60	1210.35
274.82	1267.69
275.03	1331.18
275.24	1257.45
275.46	1251.31
275.67	1298.41
275.89	1226.73
276.10	1263.60
276.31	1273.84
276.53	1298.41
276.74	1247.21
276.96	1187.82
277.17	1271.79
277.38	1255.40
277.60	1337.32
277.81	1236.97
278.02	1255.40
278.24	1222.64
278.45	1224.69
278.67	1210.35
278.88	1320.94
279.09	1251.31
279.31	1265.64
279.52	1216.49
279.73	1236.97
279.95	1267.69
280.16	1200.11
280.38	1300.46
280.59	1282.03
280.80	1304.56
281.02	1228.78
281.23	1243.12
281.44	1267.69
281.66	1255.40
281.87	1271.79
282.09	1378.28
282.30	1290.22
282.51	1269.74
282.73	1189.87
282.94	1302.51
283.15	1179.63
283.37	1239.02
283.58	1255.40
283.79	1208.30
284.01	1222.64
284.22	1306.60
284.43	1322.99
284.65	1271.79
284.86	1216.49
285.07	1290.22
285.29	1273.84
285.50	1239.02
285.72	1255.40
285.93	1234.93
286.14	1286.12
286.36	1312.75
286.57	1288.17
286.78	1239.02
287.00	1214.45
287.21	1337.32
287.42	1316.84
287.64	1275.88
287.85	1331.18
288.06	1304.56
288.28	1243.12
288.49	1257.45
288.70	1308.65
288.92	1353.71
289.13	1345.52
289.34	1322.99
289.56	1265.64
289.77	1320.94
289.98	1396.71
290.19	1294.32
290.41	1388.52
290.62	1314.80
290.83	1343.47
291.05	1351.66
291.26	1257.45
291.47	1312.75
291.69	1419.24
291.90	1349.61
292.11	1329.13
292.33	1343.47
292.54	1298.41
292.75	1355.76
292.97	1304.56
293.18	1402.86
293.39	1394.67
293.60	1415.15
293.82	1398.76
294.03	1388.52
294.24	1499.11
294.46	1441.77
294.67	1513.45
294.88	1472.49
295.10	1484.78
295.31	1488.87
295.52	1523.69
295.73	1525.74
295.95	1603.56
296.16	1632.23
296.37	1562.60
296.59	1654.76
296.80	1572.84
297.01	1642.47
297.22	1656.81
297.44	1677.29
297.65	1662.95
297.86	1679.33
298.08	1654.76
298.29	1746.92
298.50	1748.97
298.71	1720.29
298.93	1751.01
299.14	1724.39
299.35	1865.70
299.56	1763.30
299.78	1839.08
299.99	1834.98
300.20	1820.64
300.42	1812.45
300.63	1789.92
300.84	1828.84
301.05	1902.56
301.27	1847.27
301.48	1892.32
301.69	1986.53
301.90	1896.42
302.12	1837.03
302.33	1964.00
302.54	1894.37
302.75	1951.71
302.97	1961.95
303.18	1947.62
303.39	1935.33
303.60	1908.71
303.82	2039.78
304.03	2011.11
304.24	1982.43
304.45	1957.86
304.67	2054.11
304.88	2039.78
305.09	1959.91
305.30	1988.58
305.52	1982.43
305.73	2052.06
305.94	2058.21
306.15	2047.97
306.37	2164.70
306.58	2101.22
306.79	2109.41
307.00	2185.18
307.22	2127.84
307.43	2113.50
307.64	2082.78
307.85	2150.37
308.06	2115.55
308.28	2138.08
308.49	2125.79
308.70	2201.57
308.91	2170.85
309.13	2166.75
309.34	2158.56
309.55	2244.57
309.76	2265.05
309.97	2224.09
310.19	2207.71
310.40	2220.00
310.61	2197.47
310.82	2236.38
311.04	2138.08
311.25	2252.77
311.46	2289.63
311.67	2230.24
311.88	2271.20
312.10	2287.58
312.31	2326.49
312.52	2359.26
312.73	2269.15
312.94	2265.05
313.16	2318.30
313.37	2273.25
313.58	2267.10
313.79	2389.98
314.00	2322.40
314.22	2383.84
314.43	2385.88
314.64	2230.24
314.85	2299.87
315.06	2297.82
315.27	2406.36
315.49	2400.22
315.70	2406.36
315.91	2486.23
316.12	2408.41
316.33	2394.08
316.55	2453.47
316.76	2469.85
316.97	2490.33
317.18	2500.57
317.39	2463.71
317.60	2480.09
317.82	2443.23
318.03	2535.39
318.24	2475.99
318.45	2580.44
318.66	2506.71
318.88	2564.06
319.09	2600.92
319.30	2502.62
319.51	2535.39
319.72	2504.67
319.93	2633.69
320.15	2576.34
320.36	2553.82
320.57	2602.97
320.78	2641.88
320.99	2666.46
321.20	2576.34
321.41	2516.95
321.63	2600.92
321.84	2695.13
322.05	2602.97
322.26	2703.32
322.47	2764.76
322.68	2619.35
322.90	2686.94
323.11	2656.22
323.32	2658.26
323.53	2727.89
323.74	2641.88
323.95	2680.79
324.16	2707.41
324.38	2721.75
324.59	2787.29
324.80	2840.53
325.01	2746.33
325.22	2742.23
325.43	2693.08
325.64	2707.41
325.85	2715.61
326.07	2609.11
326.28	2678.74
326.49	2666.46
326.70	2731.99
326.91	2721.75
327.12	2631.64
327.33	2594.78
327.54	2738.13
327.76	2619.35
327.97	2781.14
328.18	2719.70
328.39	2707.41
328.60	2795.48
328.81	2693.08
329.02	2676.70
329.23	2697.17
329.45	2709.46
329.66	2787.29
329.87	2713.56
330.08	2826.20
330.29	2766.81
330.50	2764.76
330.71	2897.88
330.92	2811.86
331.13	3043.28
331.34	2965.46
331.56	2967.51
331.77	2938.84
331.98	2996.18
332.19	3069.91
332.40	3012.56
332.61	3078.10
332.82	2955.22
333.03	2912.21
333.24	2924.50
333.45	2908.12
333.67	2869.20
333.88	2820.05
334.09	2910.16
334.30	2858.96
334.51	2926.55
334.72	2809.81
334.93	2869.20
335.14	2877.40
335.35	2861.01
335.56	2871.25
335.77	2987.99
335.98	2875.35
336.19	2871.25
336.41	2957.27
336.62	2883.54
336.83	2914.26
337.04	2889.68
337.25	2932.69
337.46	2953.17
337.67	2820.05
337.88	2842.58
338.09	2887.64
338.30	2938.84
338.51	2998.23
338.72	2885.59
338.93	2856.92
339.14	2944.98
339.35	2938.84
339.57	2899.92
339.78	2844.63
339.99	2922.45
340.20	3041.23
340.41	3008.47
340.62	2967.51
340.83	2977.75
341.04	2965.46
341.25	2895.83
341.46	2932.69
341.67	2967.51
341.88	2932.69
342.09	3022.80
342.30	2979.79
342.51	2965.46
342.72	3063.76
342.93	3076.05
343.14	3074.00
343.35	2973.65
343.56	2996.18
343.77	2971.60
343.98	3125.20
344.19	2936.79
344.41	2967.51
344.62	2953.17
344.83	3012.56
345.04	2994.13
345.25	2959.31
345.46	2961.36
345.67	3053.52
345.88	3151.82
346.09	3069.91
346.30	3022.80
346.51	3016.66
346.72	3026.90
346.93	3047.38
347.14	2967.51
347.35	3078.10
347.56	2893.78
347.77	3035.09
347.98	3098.58
348.19	3088.34
348.40	3055.57
348.61	3041.23
348.82	3026.90
349.03	2979.79
349.24	3059.67
349.45	3110.86
349.66	3143.63
349.87	3065.81
350.08	2953.17
350.29	3123.15
350.50	3053.52
350.71	2924.50
350.92	2998.23
351.13	3010.51
351.34	2979.79
351.55	2983.89
351.76	2904.02
351.97	3098.58
352.18	3076.05
352.39	3030.99
352.60	2971.60
352.81	3022.80
353.02	3055.57
353.23	2930.64
353.44	2949.08
353.65	3002.32
353.86	3151.82
354.07	2926.55
354.28	3065.81
354.49	3084.24
354.70	3018.71
354.90	2957.27
355.11	3131.34
355.32	3016.66
355.53	3106.77
355.74	3127.25
355.95	2992.08
356.16	2981.84
356.37	3084.24
356.58	3039.19
356.79	3078.10
357.00	3108.82
357.21	3100.62
357.42	2983.89
357.63	3080.14
357.84	3098.58
358.05	3112.91
358.26	3076.05
358.47	3061.71
358.68	3133.39
358.89	3102.67
359.10	3123.15
359.31	3033.04
359.52	3020.75
359.73	3102.67
359.93	3086.29
360.14	3125.20
360.35	3108.82
360.56	3108.82
360.77	3092.43
360.98	3170.26
361.19	3182.54
361.40	3129.30
361.61	3330.00
361.82	3272.65
362.03	3243.98
362.24	3096.53
362.45	3133.39
362.66	3203.02
362.87	3121.10
363.07	3145.68
363.28	3170.26
363.49	3076.05
363.70	3239.89
363.91	3094.48
364.12	3114.96
364.33	3317.71
364.54	3200.98
364.75	3317.71
364.96	3358.67
365.17	3252.17
365.38	3280.85
365.58	3188.69
365.79	3375.05
366.00	3311.57
366.21	3241.93
366.42	3264.46
366.63	3250.13
366.84	3264.46
367.05	3389.39
367.26	3409.87
367.47	3268.56
367.67	3377.10
367.88	3338.19
368.09	3387.34
368.30	3276.75
368.51	3354.57
368.72	3336.14
368.93	3280.85
369.14	3383.24
369.35	3381.20
369.56	3248.08
369.76	3315.66
369.97	3293.13
370.18	3231.69
370.39	3504.07
370.60	3332.05
370.81	3364.81
371.02	3254.22
371.23	3330.00
371.43	3301.33
371.64	3348.43
371.85	3373.00
372.06	3321.81
372.27	3332.05
372.48	3385.29
372.69	3297.23
372.90	3381.20
373.10	3151.82
373.31	3373.00
373.52	3360.72
373.73	3473.36
373.94	3336.14
374.15	3344.33
374.36	3377.10
374.56	3497.93
374.77	3293.13
374.98	3411.92
375.19	3403.72
375.40	3389.39
375.61	3393.48
375.82	3409.87
376.02	3381.20
376.23	3418.06
376.44	3422.16
376.65	3383.24
376.86	3547.08
377.07	3489.74
377.28	3428.30
377.48	3538.89
377.69	3545.03
377.90	3489.74
378.11	3565.51
378.32	3489.74
378.53	3598.28
378.73	3373.00
378.94	3370.96
379.15	3573.71
379.36	3581.90
379.57	3438.54
379.78	3516.36
379.98	3526.60
380.19	3461.07
380.40	3448.78
380.61	3467.21
380.82	3403.72
381.03	3516.36
381.23	3506.12
381.44	3567.56
381.65	3616.71
381.86	3545.03
382.07	3368.91
382.27	3489.74
382.48	3481.55
382.69	3411.92
382.90	3583.95
383.11	3491.79
383.32	3622.86
383.52	3536.84
383.73	3338.19
383.94	3393.48
384.15	3497.93
384.36	3434.44
384.56	3614.66
384.77	3481.55
384.98	3618.76
385.19	3467.21
385.40	3401.68
385.60	3444.68
385.81	3424.20
386.02	3532.75
386.23	3477.45
386.43	3461.07
386.64	3497.93
386.85	3614.66
387.06	3538.89
387.27	3639.24
387.47	3565.51
387.68	3680.20
387.89	3659.72
388.10	3370.96
388.31	3583.95
388.51	3545.03
388.72	3614.66
388.93	3463.12
389.14	3502.03
389.34	3569.61
389.55	3532.75
389.76	3493.83
389.97	3516.36
390.18	3678.15
390.38	3592.14
390.59	3643.34
390.80	3456.97
391.01	3600.33
391.21	3844.04
391.42	3719.11
391.63	3753.93
391.84	3702.73
392.04	3715.02
392.25	3682.25
392.46	3545.03
392.67	3792.84
392.87	3801.03
393.08	3690.44
393.29	3686.34
393.50	3694.54
393.70	3590.09
393.91	3667.91
394.12	3534.79
394.33	3520.46
394.53	3502.03
394.74	3459.02
394.95	3512.27
395.16	3563.47
395.36	3710.92
395.57	3516.36
395.78	3428.30
395.99	3542.99
396.19	3706.82
396.40	3626.95
396.61	3669.96
396.81	3504.07
397.02	3684.30
397.23	3672.01
397.44	3809.22
397.64	3717.06
397.85	3772.36
398.06	3776.45
398.27	3731.40
398.47	3794.89
398.68	3721.16
398.89	3639.24
399.09	3770.31
399.30	3663.82
399.51	3577.80
399.72	3618.76
399.92	3721.16
400.13	3647.43
400.34	3653.58
400.54	3657.67
400.75	3665.86
400.96	3653.58
401.17	3633.10
401.37	3585.99
401.58	3688.39
401.79	3588.04
401.99	3719.11
402.20	3583.95
402.41	3491.79
402.61	3545.03
402.82	3665.86
403.03	3743.69
403.24	3588.04
403.44	3676.10
403.65	3579.85
403.86	3745.73
404.06	3770.31
404.27	3729.35
404.48	3780.55
404.68	3723.21
404.89	3647.43
405.10	3762.12
405.30	3710.92
405.51	3553.23
405.72	3528.65
405.92	3575.75
406.13	3512.27
406.34	3624.90
406.54	3678.15
406.75	3514.31
406.96	3604.42
407.16	3717.06
407.37	3690.44
407.58	3690.44
407.78	3704.78
407.99	3645.38
408.20	3751.88
408.40	3704.78
408.61	3676.10
408.82	3694.54
409.02	3817.41
409.23	3561.42
409.44	3635.14
409.64	3573.71
409.85	3514.31
410.06	3682.25
410.26	3676.10
410.47	3536.84
410.68	3667.91
410.88	3766.21
411.09	3758.02
411.30	3768.26
411.50	3829.70
411.71	3729.35
411.91	3727.30
412.12	3731.40
412.33	3801.03
412.53	3737.54
412.74	3801.03
412.95	3641.29
413.15	3784.65
413.36	3694.54
413.57	3696.58
413.77	3698.63
413.98	3741.64
414.18	3772.36
414.39	3663.82
414.60	3653.58
414.80	3805.13
415.01	3571.66
415.22	3862.47
415.42	3682.25
415.63	3751.88
415.83	3620.81
416.04	3592.14
416.25	3577.80
416.45	3663.82
416.66	3647.43
416.86	3643.34
417.07	3850.18
417.28	3659.72
417.48	3751.88
417.69	3758.02
417.89	3629.00
418.10	3641.29
418.31	3768.26
418.51	3764.17
418.72	3780.55
418.92	3583.95
419.13	3688.39
419.34	3770.31
419.54	3835.85
419.75	3723.21
419.95	3895.24
420.16	3733.45
420.37	3803.08
420.57	3977.16
420.78	3833.80
420.98	4048.83
421.19	3954.63
421.40	3835.85
421.60	3942.34
421.81	3913.67
422.01	3823.56
422.22	3942.34
422.42	3760.07
422.63	3803.08
422.84	3725.26
423.04	3633.10
423.25	3612.62
423.45	3727.30
423.66	3852.23
423.86	3706.82
424.07	3891.14
424.28	3944.39
424.48	3821.51
424.69	3698.63
424.89	3874.76
425.10	3923.91
425.30	3706.82
425.51	3637.19
425.72	3819.46
425.92	3801.03
426.13	3708.87
426.33	3622.86
426.54	3981.25
426.74	3852.23
426.95	3743.69
427.15	3741.64
427.36	3809.22
427.56	3784.65
427.77	3788.74
427.98	3770.31
428.18	3780.55
428.39	4026.31
428.59	4001.73
428.80	3930.05
429.00	4112.32
429.21	4143.04
429.41	3975.11
429.62	3940.29
429.82	4280.25
430.03	4061.12
430.23	4001.73
430.44	4095.94
430.65	3977.16
430.85	3993.54
431.06	3827.65
431.26	3897.28
431.47	3684.30
431.67	3948.48
431.88	3866.56
432.08	3692.49
432.29	3770.31
432.49	3772.36
432.70	3794.89
432.90	3735.50
433.11	3807.17
433.31	3872.71
433.52	3880.90
433.72	3708.87
433.93	3768.26
434.13	3839.94
434.34	3844.04
434.54	3844.04
434.75	3825.61
434.95	3950.53
435.16	3999.68
435.36	4005.83
435.57	3876.80
435.77	4083.65
435.98	3928.00
436.18	3930.05
436.39	3821.51
436.59	3876.80
436.80	3772.36
437.00	3762.12
437.21	3950.53
437.41	3921.86
437.62	4028.35
437.82	4040.64
438.03	3751.88
438.23	3958.72
438.44	3839.94
438.64	3813.32
438.85	3751.88
439.05	3938.24
439.25	3897.28
439.46	3674.06
439.66	3680.20
439.87	3778.50
440.07	3749.83
440.28	3764.17
440.48	3815.37
440.69	3848.13
440.89	3790.79
441.10	3790.79
441.30	3805.13
441.51	3872.71
441.71	3915.72
441.92	3694.54
442.12	3803.08
442.32	3942.34
442.53	3807.17
442.73	3907.52
442.94	3616.71
443.14	3964.87
443.35	3770.31
443.55	3913.67
443.76	3706.82
443.96	3657.67
444.16	3887.04
444.37	3821.51
444.57	3934.15
444.78	3872.71
444.98	3905.48
445.19	3872.71
445.39	3905.48
445.60	3833.80
445.80	3815.37
446.00	3940.29
446.21	3758.02
446.41	3741.64
446.62	3928.00
446.82	3903.43
447.03	3829.70
447.23	3803.08
447.43	3821.51
447.64	3948.48
447.84	3753.93
448.05	3743.69
448.25	3694.54
448.45	4016.07
448.66	3758.02
448.86	3852.23
449.07	3921.86
449.27	3917.76
449.48	3782.60
449.68	3815.37
449.88	3829.70
450.09	3844.04
450.29	3917.76
450.50	3778.50
450.70	3786.69
450.90	3712.97
451.11	3694.54
451.31	3778.50
451.52	3700.68
451.72	3635.14
451.92	3766.21
452.13	3639.24
452.33	3758.02
452.54	3592.14
452.74	3598.28
452.94	3612.62
453.15	3706.82
453.35	3569.61
453.55	3616.71
453.76	3565.51
453.96	3721.16
454.17	3614.66
454.37	3727.30
454.57	3682.25
454.78	3641.29
454.98	3479.50
455.19	3569.61
455.39	3649.48
455.59	3643.34
455.80	3557.32
456.00	3557.32
456.20	3706.82
456.41	3626.95
456.61	3504.07
456.81	3788.74
457.02	3626.95
457.22	3708.87
457.43	3600.33
457.63	3540.94
457.83	3594.19
458.04	3698.63
458.24	3575.75
458.44	3514.31
458.65	3553.23
458.85	3559.37
459.05	3715.02
459.26	3596.23
459.46	3549.13
459.66	3688.39
459.87	3743.69
460.07	3571.66
460.27	3530.70
460.48	3727.30
460.68	3811.27
460.88	3512.27
461.09	3518.41
461.29	3526.60
461.49	3395.53
461.70	3502.03
461.90	3461.07
462.10	3401.68
462.31	3522.51
462.51	3479.50
462.71	3346.38
462.92	3334.09
463.12	3422.16
463.32	3631.05
463.53	3626.95
463.73	3723.21
463.93	3575.75
464.14	3626.95
464.34	3639.24
464.54	3823.56
464.75	3839.94
464.95	3745.73
465.15	3760.07
465.36	3647.43
465.56	3729.35
465.76	3594.19
465.96	3608.52
466.17	3465.16
466.37	3512.27
466.57	3698.63
466.78	3659.72
466.98	3469.26
467.18	3669.96
467.39	3614.66
467.59	3659.72
467.79	3547.08
467.99	3559.37
468.20	3669.96
468.40	3573.71
468.60	3508.17
468.81	3602.38
469.01	3606.47
469.21	3479.50
469.41	3674.06
469.62	3579.85
469.82	3510.22
470.02	3569.61
470.23	3467.21
470.43	3563.47
470.63	3559.37
470.83	3573.71
471.04	3579.85
471.24	3614.66
471.44	3612.62
471.65	3639.24
471.85	3717.06
472.05	3753.93
472.25	3594.19
472.46	3653.58
472.66	3788.74
472.86	3864.52
473.06	3637.19
473.27	3868.61
473.47	3919.81
473.67	3987.40
473.87	3946.44
474.08	4044.74
474.28	4069.31
474.48	4036.55
474.68	3948.48
474.89	3987.40
475.09	3936.20
475.29	3948.48
475.49	3930.05
475.70	4157.38
475.90	4284.35
476.10	3979.20
476.30	3981.25
476.51	4032.45
476.71	4057.03
476.91	4024.26
477.11	4007.87
477.32	4057.03
477.52	4134.85
477.72	3979.20
477.92	4077.51
478.12	4071.36
478.33	4112.32
478.53	4069.31
478.73	4315.07
478.93	4233.15
479.14	4249.54
479.34	4274.11
479.54	4423.61
479.74	4278.21
479.94	4239.30
480.15	4306.88
480.35	4347.84
480.55	4468.67
480.75	4513.72
480.96	4458.43
481.16	4448.19
481.36	4468.67
481.56	4480.96
481.76	4552.63
481.97	4460.48
482.17	4415.42
482.37	4564.92
482.57	4558.78
482.77	4442.04
482.98	4603.83
483.18	4638.65
483.38	4556.73
483.58	4802.49
483.78	4745.14
483.98	4687.80
484.19	4689.85
484.39	4894.65
484.59	5015.48
484.79	5076.91
484.99	5177.26
485.20	5132.21
485.40	4997.04
485.60	5021.62
485.80	5142.45
486.00	5093.30
486.20	5236.66
486.41	5195.70
486.61	5005.24
486.81	5005.24
487.01	4937.65
487.21	4810.68
487.42	4767.67
487.62	4679.61
487.82	4761.53
488.02	4777.91
488.22	4829.11
488.42	4755.38
488.62	4736.95
488.83	4816.82
489.03	4739.00
489.23	4747.19
489.43	4736.95
489.63	4747.19
489.83	4655.03
490.04	4876.21
490.24	4673.46
490.44	4661.18
490.64	4601.79
490.84	4652.98
491.04	4612.03
491.24	4583.35
491.45	4716.47
491.65	4650.94
491.85	4777.91
492.05	4736.95
492.25	4741.05
492.45	4698.04
492.65	4573.11
492.86	4808.63
493.06	4546.49
493.26	4663.22
493.46	4775.86
493.66	4782.01
493.86	4804.53
494.06	4743.10
494.26	4575.16
494.47	4888.50
494.67	4816.82
494.87	4894.65
495.07	5146.55
495.27	5054.39
495.47	4982.71
495.67	5017.52
495.87	4962.23
496.07	4980.66
496.28	4786.10
496.48	4857.78
496.68	4863.93
496.88	4829.11
497.08	4796.34
497.28	4833.21
497.48	4775.86
497.68	4679.61
497.88	4681.66
498.08	4564.92
498.29	4657.08
498.49	4605.88
498.69	4595.64
498.89	4644.79
499.09	4585.40
499.29	4722.62
499.49	4505.53
499.69	4718.52
499.89	4726.71
500.09	4706.23
500.29	4882.36
500.50	4745.14
500.70	4726.71
500.90	4933.56
501.10	4835.25
501.30	4861.88
501.50	4745.14
501.70	4569.02
501.90	4677.56
502.10	4847.54
502.30	4820.92
502.50	4763.58
502.70	4788.15
502.90	4739.00
503.10	4739.00
503.31	4607.93
503.51	4745.14
503.71	4636.60
503.91	4767.67
504.11	4708.28
504.31	4515.77
504.51	4620.22
504.71	4532.15
504.91	4546.49
505.11	4620.22
505.31	4628.41
505.51	4603.83
505.71	4530.11
505.91	4575.16
506.11	4460.48
506.31	4468.67
506.51	4548.54
506.71	4583.35
506.91	4452.28
507.11	4427.71
507.31	4603.83
507.51	4499.39
507.72	4362.17
507.92	4464.57
508.12	4392.89
508.32	4532.15
508.52	4403.13
508.72	4495.29
508.92	4331.45
509.12	4396.99
509.32	4437.95
509.52	4587.45
509.72	4540.35
509.92	4571.07
510.12	4425.66
510.32	4544.44
510.52	4538.30
510.72	4478.91
510.92	4460.48
511.12	4376.51
511.32	4478.91
511.52	4460.48
511.72	4478.91
511.92	4511.68
512.12	4401.08
512.32	4429.76
512.52	4319.17
512.72	4427.71
512.92	4388.80
513.12	4442.04
513.32	4515.77
513.52	4466.62
513.72	4407.23
513.92	4325.31
514.12	4255.68
514.32	4392.89
514.52	4272.06
514.72	4327.36
514.92	4362.17
515.12	4487.10
515.32	4454.33
515.52	4556.73
515.72	4517.82
515.92	4435.90
516.12	4423.61
516.32	4483.00
516.52	4583.35
516.72	4540.35
516.92	4431.80
517.12	4425.66
517.32	4573.11
517.51	4466.62
517.71	4425.66
517.91	4626.36
518.11	4558.78
518.31	4681.66
518.51	4698.04
518.71	4640.70
518.91	4517.82
519.11	4630.46
519.31	4644.79
519.51	4612.03
519.71	4548.54
519.91	4560.83
520.11	4597.69
520.31	4585.40
520.51	4603.83
520.71	4624.31
520.91	4648.89
521.11	4607.93
521.31	4636.60
521.51	4575.16
521.70	4603.83
521.90	4509.63
522.10	4577.21
522.30	4546.49
522.50	4583.35
522.70	4708.28
522.90	4695.99
523.10	4618.17
523.30	4693.94
523.50	4536.25
523.70	4691.90
523.90	4618.17
524.10	4675.51
524.30	4646.84
524.49	4589.50
524.69	4679.61
524.89	4669.37
525.09	4671.42
525.29	4726.71
525.49	4634.55
525.69	4863.93
525.89	4779.96
526.09	4673.46
526.29	4775.86
526.49	4691.90
526.68	4636.60
526.88	4657.08
527.08	4739.00
527.28	4622.27
527.48	4812.73
527.68	4745.14
527.88	4812.73
528.08	4726.71
528.28	4810.68
528.48	4822.97
528.67	4687.80
528.87	4761.53
529.07	4974.52
529.27	4835.25
529.47	4816.82
529.67	4820.92
529.87	4749.24
530.07	4720.57
530.26	4779.96
530.46	4751.29
530.66	4802.49
530.86	4657.08
531.06	4769.72
531.26	4736.95
531.46	4745.14
531.66	4767.67
531.85	4753.34
532.05	4845.49
532.25	4829.11
532.45	4788.15
532.65	4818.87
532.85	4835.25
533.05	4784.06
533.25	4861.88
533.44	5078.96
533.64	4925.36
533.84	4966.32
534.04	5119.92
534.24	4870.07
534.44	4978.61
534.63	5085.11
534.83	4868.02
535.03	4878.26
535.23	4736.95
535.43	4859.83
535.63	4777.91
535.83	4773.82
536.02	4759.48
536.22	4857.78
536.42	4835.25
536.62	4921.27
536.82	4943.80
537.02	4962.23
537.21	5038.00
537.41	5033.91
537.61	4937.65
537.81	4976.56
538.01	5144.50
538.21	5144.50
538.40	5121.97
538.60	5136.31
538.80	5154.74
539.00	5101.49
539.20	5156.79
539.39	5109.68
539.59	5062.58
539.79	5054.39
539.99	5115.83
540.19	5171.12
540.39	5128.11
540.58	5328.81
540.78	5287.86
540.98	5312.43
541.18	5294.00
541.38	5390.25
541.57	5236.66
541.77	5214.13
541.97	5334.96
542.17	5402.54
542.37	5271.47
542.56	5398.45
542.76	5304.24
542.96	5412.78
543.16	5416.88
543.35	5476.27
543.55	5498.80
543.75	5394.35
543.95	5535.66
544.15	5496.75
544.34	5490.60
544.54	5556.14
544.74	5431.21
544.94	5478.32
545.14	5439.40
545.33	5375.92
545.53	5138.35
545.73	5423.02
545.93	5271.47
546.12	5480.36
546.32	5359.53
546.52	5343.15
546.72	5369.77
546.91	5408.69
547.11	5437.36
547.31	5392.30
547.51	5470.12
547.70	5289.90
547.90	5081.01
548.10	5205.94
548.30	5099.44
548.50	5216.18
548.69	5042.10
548.89	5138.35
549.09	5111.73
549.29	5038.00
549.48	5058.48
549.68	5001.14
549.88	5017.52
550.07	5099.44
550.27	4999.09
550.47	4980.66
550.67	5115.83
550.86	5124.02
551.06	5111.73
551.26	5263.28
551.46	5400.49
551.65	5185.46
551.85	5384.11
552.05	5365.68
552.25	5271.47
552.44	5365.68
552.64	5402.54
552.84	5390.25
553.03	5353.39
553.23	5140.40
553.43	5095.35
553.63	5279.66
553.82	5169.07
554.02	5439.40
554.22	5427.12
554.41	5400.49
554.61	5425.07
554.81	5408.69
555.01	5300.14
555.20	5230.51
555.40	5265.33
555.60	5216.18
555.79	5054.39
555.99	5134.26
556.19	5171.12
556.38	5087.15
556.58	5074.87
556.78	5009.33
556.98	4929.46
557.17	5078.96
557.37	5011.38
557.57	4947.89
557.76	5011.38
557.96	4978.61
558.16	4943.80
558.35	5179.31
558.55	4997.04
558.75	5248.94
558.94	5160.88
559.14	5453.74
559.34	5400.49
559.53	5377.97
559.73	5595.05
559.93	5488.56
560.12	5636.01
560.32	5525.42
560.52	5525.42
560.71	5687.21
560.91	5537.71
561.11	5593.00
561.30	5406.64
561.50	5459.88
561.70	5529.52
561.89	5431.21
562.09	5644.20
562.29	5466.03
562.48	5531.56
562.68	5496.75
562.88	5521.32
563.07	5642.15
563.27	5486.51
563.47	5521.32
563.66	5588.91
563.86	5410.73
564.06	5332.91
564.25	5437.36
564.45	5328.81
564.64	5236.66
564.84	5332.91
565.04	5369.77
565.23	5216.18
565.43	5267.38
565.63	5277.62
565.82	5488.56
566.02	5250.99
566.22	5416.88
566.41	5351.34
566.61	5550.00
566.80	5504.94
567.00	5660.59
567.20	5631.91
567.39	5625.77
567.59	5748.65
567.78	5842.85
567.98	6039.46
568.18	5922.73
568.37	6166.43
568.57	6193.06
568.77	6279.07
568.96	6305.70
569.16	6197.15
569.35	6416.29
569.55	6395.81
569.75	6639.51
569.94	6610.84
570.14	6633.37
570.33	6739.87
570.53	7034.77
570.73	6967.19
570.92	7149.46
571.12	7153.55
571.31	6711.19
571.51	6621.08
571.71	6885.27
571.90	6959.00
572.10	6963.09
572.29	7036.82
572.49	7149.46
572.68	7280.53
572.88	7315.34
573.08	7126.93
573.27	7341.97
573.47	7438.22
573.66	7415.69
573.86	7546.76
574.05	7393.17
574.25	7124.88
574.45	7243.67
574.64	6893.46
574.84	7171.99
575.03	7081.88
575.23	7061.40
575.42	7200.66
575.62	7348.11
575.82	7135.12
576.01	7536.52
576.21	7608.20
576.40	7964.55
576.60	8228.74
576.79	8462.21
576.99	8533.89
577.18	8593.28
577.38	8314.75
577.57	7978.89
577.77	7878.54
577.97	7675.79
578.16	7612.30
578.36	7528.33
578.55	7499.66
578.75	7503.76
578.94	7409.55
579.14	7323.54
579.33	7202.71
579.53	7409.55
579.72	7858.06
579.92	8335.23
580.11	8771.45
580.31	8898.42
580.50	9080.69
580.70	9351.03
580.90	9209.72
581.09	8654.72
581.29	8564.61
581.48	8456.06
581.68	8210.31
581.87	7903.11
582.07	7597.96
582.26	7346.06
582.46	7124.88
582.65	7059.35
582.85	6901.65
583.04	7085.97
583.24	7344.02
583.43	7522.19
583.63	7825.29
583.82	8019.85
584.02	8214.40
584.21	8320.90
584.41	8286.08
584.60	8140.68
584.80	8085.38
584.99	7956.36
585.19	7870.34
585.38	7800.71
585.58	7640.97
585.77	7583.63
585.97	7606.16
586.16	7886.73
586.35	7645.07
586.55	7843.72
586.74	7874.44
586.94	7823.24
587.13	7688.07
587.33	7716.75
587.52	7522.19
587.72	7405.46
587.91	7022.48
588.11	7106.45
588.30	7053.20
588.50	7053.20
588.69	6936.47
588.89	6891.41
589.08	6731.67
589.28	6944.66
589.47	6807.45
589.66	6692.76
589.86	6666.14
590.05	6752.15
590.25	6700.95
590.44	6768.54
590.64	6780.82
590.83	6901.65
591.03	6789.02
591.22	7202.71
591.41	7221.14
591.61	7634.83
591.80	7849.86
592.00	8118.15
592.19	8187.78
592.39	8281.99
592.58	7872.39
592.78	7939.97
592.97	7643.02
593.16	7309.20
593.36	7323.54
593.55	7143.32
593.75	6995.86
593.94	7157.65
594.14	7178.13
594.33	6938.52
594.52	6995.86
594.72	6885.27
594.91	6920.09
595.11	6584.22
595.30	6668.19
595.49	6563.74
595.69	6688.67
595.88	6754.20
596.08	7057.30
596.27	7169.94
596.47	7182.23
596.66	7143.32
596.85	7389.07
597.05	7313.30
597.24	7585.68
597.44	7739.27
597.63	7901.06
597.82	8148.87
598.02	8259.46
598.21	8433.54
598.40	8384.38
598.60	8550.27
598.79	8482.69
598.99	8566.65
599.18	8382.34
599.37	8396.67
599.57	8157.06
599.76	7919.50
599.96	7622.54
600.15	7708.55
600.34	7376.78
600.54	7438.22
600.73	7233.43
600.92	6905.75
601.12	6875.03
601.31	6815.64
601.51	6899.61
601.70	6641.56
601.89	6901.65
602.09	7008.15
602.28	7045.01
602.47	7184.27
602.67	7290.77
602.86	7395.22
603.05	7356.30
603.25	7452.56
603.44	7477.13
603.63	7524.24
603.83	7432.08
604.02	7511.95
604.22	7630.73
604.41	7726.99
604.60	7976.84
604.80	7645.07
604.99	7991.17
605.18	7905.16
605.38	8130.44
605.57	8077.19
605.76	8013.70
605.96	8191.88
606.15	8365.95
606.34	8277.89
606.54	8187.78
606.73	7954.31
606.92	7794.57
607.12	7692.17
607.31	7559.05
607.50	7329.68
607.70	7409.55
607.89	7147.41
608.08	6948.76
608.28	7077.78
608.47	6961.05
608.66	6926.23
608.85	7081.88
609.05	7061.40
609.24	6977.43
609.43	6793.11
609.63	6969.24
609.82	7026.58
610.01	7092.12
610.21	7376.78
610.40	7038.87
610.59	7081.88
610.79	7239.57
610.98	7151.51
611.17	7092.12
611.36	7022.48
611.56	7081.88
611.75	7294.86
611.94	7053.20
612.14	7477.13
612.33	7221.14
612.52	7350.16
612.71	7245.71
612.91	7284.62
613.10	7264.15
613.29	7430.03
613.49	7749.51
613.68	7640.97
613.87	7765.90
614.06	7880.58
614.26	7686.03
614.45	7671.69
614.64	7620.49
614.83	7442.32
615.03	7255.95
615.22	7358.35
615.41	7071.64
615.60	7038.87
615.80	6965.14
615.99	6926.23
616.18	6889.37
616.38	6877.08
616.57	6741.91
616.76	6844.31
616.95	6885.27
617.15	6911.89
617.34	6969.24
617.53	6881.18
617.72	6897.56
617.92	6717.34
618.11	6782.87
618.30	6924.18
618.49	6961.05
618.68	6999.96
618.88	7004.05
619.07	7081.88
619.26	7024.53
619.45	6997.91
619.65	6899.61
619.84	6850.46
620.03	6952.85
620.22	6768.54
620.42	6899.61
620.61	7075.73
620.80	7405.46
620.99	7284.62
621.18	7460.75
621.38	7425.93
621.57	7366.54
621.76	7501.71
621.95	7466.89
622.15	7425.93
622.34	7468.94
622.53	7440.27
622.72	7454.61
622.91	7448.46
623.11	7505.81
623.30	7514.00
623.49	7442.32
623.68	7503.76
623.87	7389.07
624.07	7358.35
624.26	7499.66
624.45	7083.92
624.64	7323.54
624.83	7249.81
625.03	7462.80
625.22	7276.43
625.41	7241.62
625.60	7425.93
625.79	7448.46
625.98	7415.69
626.18	7442.32
626.37	7600.01
626.56	7450.51
626.75	7427.98
626.94	7294.86
627.14	7241.62
627.33	7247.76
627.52	7241.62
627.71	7233.43
627.90	7249.81
628.09	7292.82
628.29	7407.50
628.48	7393.17
628.67	7305.10
628.86	7235.47
629.05	7208.85
629.24	7268.24
629.43	7384.98
629.63	7274.38
629.82	7344.02
630.01	7128.98
630.20	7258.00
630.39	7151.51
630.58	6881.18
630.78	7014.29
630.97	6793.11
631.16	6924.18
631.35	6946.71
631.54	6819.74
631.73	6840.22
631.92	6856.60
632.11	6746.01
632.31	6868.89
632.50	6789.02
632.69	6766.49
632.88	6942.61
633.07	6844.31
633.26	7038.87
633.45	6879.13
633.65	7016.34
633.84	6598.56
634.03	6829.98
634.22	6885.27
634.41	6997.91
634.60	6932.37
634.79	6940.57
634.98	6793.11
635.17	7178.13
635.37	6973.33
635.56	6969.24
635.75	6950.81
635.94	7135.12
636.13	6981.53
636.32	7032.72
636.51	6961.05
636.70	7006.10
636.89	6946.71
637.08	6864.79
637.28	6926.23
637.47	6721.43
637.66	6866.84
637.85	6993.81
638.04	6956.95
638.23	6862.74
638.42	6954.90
638.61	6930.33
638.80	6899.61
638.99	6913.94
639.18	6942.61
639.38	6813.59
639.57	6983.57
639.76	6858.65
639.95	6838.17
640.14	6864.79
640.33	7004.05
640.52	6817.69
640.71	6901.65
640.90	6959.00
641.09	6819.74
641.28	6795.16
641.47	6758.30
641.66	6848.41
641.85	6987.67
642.04	6909.85
642.24	6934.42
642.43	6942.61
642.62	7182.23
642.81	6975.38
643.00	6975.38
643.19	7032.72
643.38	7036.82
643.57	7063.44
643.76	6961.05
643.95	6893.46
644.14	6832.02
644.33	6985.62
644.52	6809.50
644.71	6893.46
644.90	6823.83
645.09	6938.52
645.28	6762.39
645.47	6879.13
645.66	6807.45
645.85	6854.55
646.04	6889.37
646.23	6829.98
646.42	6877.08
646.61	6905.75
646.80	6905.75
646.99	6909.85
647.18	7241.62
647.37	7301.01
647.56	7366.54
647.75	7399.31
647.95	7417.74
648.14	7479.18
648.33	7384.98
648.52	7630.73
648.71	7481.23
648.90	7403.41
649.09	7356.30
649.28	7198.61
649.47	7155.60
649.66	7292.82
649.85	7409.55
650.04	7303.06
650.23	7268.24
650.42	7356.30
650.61	7460.75
650.79	7253.91
650.98	7258.00
651.17	7206.80
651.36	7333.78
651.55	7165.84
651.74	7409.55
651.93	7438.22
652.12	7399.31
652.31	7470.99
652.50	7307.15
652.69	7362.45
652.88	7475.09
653.07	7198.61
653.26	7239.57
653.45	7192.47
653.64	7169.94
653.83	7278.48
654.02	7528.33
654.21	7911.30
654.40	8892.28
654.59	10157.92
654.78	11241.30
654.97	11865.93
655.16	12025.67
655.35	11732.81
655.54	11138.90
655.73	10526.56
655.92	9580.40
656.11	9322.35
656.30	8923.00
656.48	8595.32
656.67	8521.60
656.86	8365.95
657.05	7974.79
657.24	7937.93
657.43	7761.80
657.62	7710.60
657.81	7587.72
658.00	7550.86
658.19	7475.09
658.38	7468.94
658.57	7442.32
658.76	7477.13
658.95	7382.93
659.13	7460.75
659.32	7350.16
659.51	7255.95
659.70	7311.25
659.89	7399.31
660.08	7413.65
660.27	7354.26
660.46	7311.25
660.65	7214.99
660.84	7358.35
661.03	7249.81
661.22	7190.42
661.40	7491.47
661.59	7526.29
661.78	7450.51
661.97	7301.01
662.16	7425.93
662.35	7456.65
662.54	7532.43
662.73	7372.69
662.92	7544.72
663.11	7559.05
663.29	7454.61
663.48	7382.93
663.67	7735.18
663.86	7589.77
664.05	7600.01
664.24	7554.96
664.43	7536.52
664.62	7673.74
664.80	7600.01
664.99	7552.91
665.18	7563.15
665.37	7438.22
665.56	7495.57
665.75	7536.52
665.94	7595.92
666.13	7292.82
666.31	7380.88
666.50	7509.90
666.69	7571.34
666.88	7536.52
667.07	7313.30
667.26	7522.19
667.45	7460.75
667.63	7473.04
667.82	7440.27
668.01	7432.08
668.20	7397.26
668.39	7806.86
668.58	7608.20
668.76	7544.72
668.95	7542.67
669.14	7481.23
669.33	7778.19
669.52	7524.24
669.71	7509.90
669.90	7683.98
670.08	7745.42
670.27	7858.06
670.46	7993.22
670.65	7980.93
670.84	8105.86
671.03	8173.44
671.21	7968.65
671.40	8005.51
671.59	8089.48
671.78	7999.37
671.97	7987.08
672.15	7790.47
672.34	7735.18
672.53	7726.99
672.72	7796.62
672.91	7675.79
673.09	7817.10
673.28	7640.97
673.47	7776.14
673.66	7835.53
673.85	7702.41
674.04	7722.89
674.22	7813.00
674.41	7659.40
674.60	7724.94
674.79	7624.59
674.98	7796.62
675.16	7825.29
675.35	7880.58
675.54	7806.86
675.73	7745.42
675.91	7837.58
676.10	7647.12
676.29	7937.93
676.48	7853.96
676.67	7729.03
676.85	8144.77
677.04	7942.02
677.23	8060.80
677.42	8011.65
677.60	8025.99
677.79	8023.94
677.98	8056.71
678.17	8152.96
678.36	7978.89
678.54	8290.18
678.73	8202.11
678.92	7935.88
679.11	8013.70
679.29	8173.44
679.48	8001.41
679.67	7948.17
679.86	7962.50
680.04	7913.35
680.23	7991.17
680.42	8144.77
680.61	8091.52
680.79	8251.27
680.98	7995.27
681.17	8101.76
681.36	8017.80
681.54	7927.69
681.73	7884.68
681.92	7831.43
682.11	7808.90
682.29	7829.38
682.48	7880.58
682.67	7995.27
682.85	7982.98
683.04	8136.58
683.23	8138.63
683.42	8112.00
683.60	8216.45
683.79	8218.50
683.98	8386.43
684.17	8411.01
684.35	8552.32
684.54	8445.82
684.73	8505.21
684.91	8427.39
685.10	8302.47
685.29	8290.18
685.48	8421.25
685.66	8210.31
685.85	8185.73
686.04	8351.62
686.22	8298.37
686.41	8163.20
686.60	8181.64
686.78	8286.08
686.97	8230.79
687.16	8099.72
687.35	8277.89
687.53	8140.68
687.72	8384.38
687.91	8238.98
688.09	8411.01
688.28	8109.96
688.47	8181.64
688.65	8312.71
688.84	8427.39
689.03	8300.42
689.21	8304.51
689.40	8241.03
689.59	8404.86
689.77	8222.59
689.96	8437.63
690.15	8441.73
690.33	8593.28
690.52	8355.71
690.71	8570.75
690.89	8386.43
691.08	8556.41
691.27	8497.02
691.45	8576.89
691.64	8284.03
691.83	8476.54
692.01	8501.12
692.20	8413.06
692.39	8296.32
692.57	8413.06
692.76	8304.51
692.95	8398.72
693.13	8388.48
693.32	8337.28
693.50	8339.33
693.69	8335.23
693.88	8384.38
694.06	8398.72
694.25	8603.52
694.44	8423.30
694.62	8458.11
694.81	8695.68
695.00	8359.81
695.18	8464.25
695.37	8357.76
695.55	8640.38
695.74	8664.96
695.93	8914.81
696.11	9152.37
696.30	9133.94
696.49	9197.43
696.67	9035.64
696.86	9095.03
697.04	8898.42
697.23	8777.59
697.42	8636.28
697.60	8705.92
697.79	8697.72
697.97	8474.49
698.16	8421.25
698.35	8509.31
698.53	8548.22
698.72	8654.72
698.90	8509.31
699.09	8320.90
699.28	8458.11
699.46	8501.12
699.65	8454.02
699.83	8404.86
700.02	8624.00
700.21	8441.73
700.39	8404.86
700.58	8388.48
700.76	8560.51
700.95	8853.37
701.13	8658.81
701.32	8554.37
701.51	8675.20
701.69	9002.87
701.88	8738.68
702.06	8898.42
702.25	8808.31
702.43	8839.03
702.62	8869.75
702.81	8599.42
702.99	8757.11
703.18	8654.72
703.36	8816.51
703.55	8783.74
703.73	8617.85
703.92	8484.73
704.10	8492.93
704.29	8449.92
704.48	8505.21
704.66	8421.25
704.85	8667.00
705.03	8404.86
705.22	8691.58
705.40	8863.61
705.59	8824.70
705.77	8763.26
705.96	8951.67
706.14	8933.24
706.33	9312.11
706.51	9279.35
706.70	9262.96
706.89	9115.51
707.07	9330.55
707.26	9273.20
707.44	9217.91
707.63	9023.35
707.81	9031.54
708.00	8869.75
708.18	8992.63
708.37	9017.21
708.55	8818.55
708.74	8673.15
708.92	8753.02
709.11	8689.53
709.29	8769.40
709.48	8865.66
709.66	8726.39
709.85	8746.87
710.03	8798.07
710.22	8771.45
710.40	8839.03
710.59	8691.58
710.77	8769.40
710.96	8759.16
711.14	8660.86
711.33	8712.06
711.51	8871.80
711.70	9101.17
711.88	9035.64
712.07	9092.98
712.25	9074.55
712.44	9174.90
712.62	8994.68
712.81	9039.73
712.99	8974.20
713.18	9029.49
713.36	9101.17
713.54	9064.31
713.73	9189.24
713.91	9082.74
714.10	9183.09
714.28	9191.28
714.47	9258.87
714.65	8886.14
714.84	9056.12
715.02	8822.65
715.21	9031.54
715.39	8662.91
715.58	8841.08
715.76	8757.11
715.94	8775.55
716.13	8796.03
716.31	8716.16
716.50	8779.64
716.68	8925.05
716.87	8931.19
717.05	9029.49
717.24	8894.33
717.42	9240.44
717.60	8974.20
717.79	9117.56
717.97	9115.51
718.16	9129.84
718.34	9168.76
718.53	8982.39
718.71	9142.13
718.89	8984.44
719.08	8814.46
719.26	8902.52
719.45	8945.53
719.63	9004.92
719.82	9144.18
720.00	9115.51
720.18	8986.49
720.37	9060.21
720.55	9011.06
720.74	9174.90
720.92	8879.99
721.10	9009.01
721.29	8800.12
721.47	9037.69
721.66	8859.51
721.84	8992.63
722.02	8865.66
722.21	9064.31
722.39	8884.09
722.58	9019.25
722.76	9029.49
722.94	8943.48
723.13	9060.21
723.31	8935.29
723.50	9013.11
723.68	9000.82
723.86	8910.71
724.05	8980.34
724.23	9179.00
724.41	9070.45
724.60	9242.48
724.78	9197.43
724.97	9148.28
725.15	9074.55
725.33	9015.16
725.52	9262.96
725.70	9138.04
725.88	8867.70
726.07	9074.55
726.25	9351.03
726.44	9234.29
726.62	9084.79
726.80	9205.62
726.99	9183.09
727.17	9195.38
727.35	9396.08
727.54	9428.85
727.72	9279.35
727.90	9217.91
728.09	9482.10
728.27	9285.49
728.45	9203.57
728.64	9377.65
728.82	9332.59
729.00	9154.42
729.19	9373.55
729.37	9504.62
729.55	9635.69
729.74	9625.45
729.92	9715.56
730.10	9934.70
730.29	9863.02
730.47	9842.54
730.65	9701.23
730.84	9641.84
731.02	9752.43
731.20	9674.60
731.39	9617.26
731.57	9729.90
731.75	9697.13
731.94	9549.68
732.12	9539.44
732.30	9613.17
732.49	9983.85
732.67	9449.33
732.85	9842.54
733.03	9658.22
733.22	9713.52
733.40	9611.12
733.58	9858.92
733.77	9582.45
733.95	9793.39
734.13	9617.26
734.32	9678.70
734.50	9813.87
734.68	9916.26
734.86	9758.57
735.05	9703.28
735.23	9795.43
735.41	9750.38
735.60	9664.36
735.78	9828.20
735.96	9690.99
736.14	9617.26
736.33	9408.37
736.51	9553.77
736.69	9596.78
736.87	9604.97
737.06	9437.04
737.24	9498.48
737.42	9406.32
737.61	9650.03
737.79	9697.13
737.97	9822.06
738.15	9820.01
738.34	9791.34
738.52	9760.62
738.70	9754.48
738.88	9674.60
739.07	9576.30
739.25	9516.91
739.43	9424.75
739.61	9326.45
739.80	9375.60
739.98	9195.38
740.16	9324.40
740.34	9172.85
740.52	9215.86
740.71	9035.64
740.89	9242.48
741.07	9117.56
741.25	9410.42
741.44	9367.41
741.62	9299.83
741.80	9338.74
741.98	9453.42
742.17	9342.83
742.35	9410.42
742.53	9322.35
742.71	9285.49
742.89	9043.83
743.08	9152.37
743.26	9197.43
743.44	9076.60
743.62	9142.13
743.80	9269.11
743.99	9004.92
744.17	9060.21
744.35	9148.28
744.53	9047.93
744.71	8834.94
744.90	9023.35
745.08	9015.16
745.26	9117.56
745.44	9170.80
745.62	8929.14
745.81	8998.77
745.99	9111.41
746.17	9070.45
746.35	9078.65
746.53	9156.47
746.72	9101.17
746.90	8912.76
747.08	8982.39
747.26	8947.58
747.44	9138.04
747.62	9058.17
747.81	8937.34
747.99	9256.82
748.17	9170.80
748.35	9097.08
748.53	9131.89
748.71	9181.04
748.90	9222.00
749.08	9338.74
749.26	9420.66
749.44	9453.42
749.62	9277.30
749.80	9303.92
749.99	9357.17
750.17	9346.93
750.35	9357.17
750.53	9314.16
750.71	9394.03
750.89	9281.39
751.07	9473.90
751.26	9230.20
751.44	9125.75
751.62	9355.12
751.80	9119.60
751.98	9262.96
752.16	9262.96
752.34	9377.65
752.53	9158.52
752.71	9131.89
752.89	9391.98
753.07	9371.50
753.25	9330.55
753.43	9201.52
753.61	9211.76
753.79	9246.58
753.98	9240.44
754.16	9455.47
754.34	9471.86
754.52	9381.74
754.70	9531.25
754.88	9635.69
755.06	9652.08
755.24	9647.98
755.42	9865.07
755.60	10020.71
755.79	10200.93
755.97	10387.30
756.15	10520.42
756.33	10700.64
756.51	10610.53
756.69	10577.76
756.87	10874.71
757.05	10878.81
757.23	10594.14
757.41	10440.54
757.60	10577.76
757.78	10508.13
757.96	10608.48
758.14	10452.83
758.32	10626.91
758.50	10524.51
758.68	10616.67
758.86	10633.05
759.04	10792.80
759.22	10909.53
759.40	10999.64
759.58	11171.67
759.76	11421.52
759.94	11136.85
760.13	11376.47
760.31	11423.57
760.49	11505.49
760.67	11337.56
760.85	11257.68
761.03	11231.06
761.21	11173.72
761.39	11280.21
761.57	11413.33
761.75	11345.75
761.93	11704.14
762.11	11659.09
762.29	11665.23
762.47	11669.33
762.65	11857.74
762.83	12003.14
763.01	11865.93
763.19	12060.49
763.37	12515.14
763.55	12246.85
763.73	12451.65
763.91	12613.44
764.09	12830.52
764.27	12646.21
764.45	12437.31
764.64	12429.12
764.82	12269.38
765.00	12031.82
765.18	12359.49
765.36	12052.30
765.54	11773.77
765.72	11886.41
765.90	11892.55
766.08	11458.39
766.26	11978.57
766.44	11904.84
766.62	11960.14
766.80	11966.28
766.98	12222.28
767.16	12169.03
767.34	12316.48
767.52	12461.89
767.70	12457.79
767.88	12324.68
768.06	12275.52
768.24	12402.50
768.42	12322.63
768.60	12138.31
768.78	12087.11
768.96	11960.14
769.13	11923.27
769.31	11786.06
769.49	11898.70
769.67	11898.70
769.85	11933.51
770.03	11935.56
770.21	11839.31
770.39	11743.05
770.57	11861.84
770.75	11741.00
770.93	11691.85
771.11	11726.67
771.29	11616.08
771.47	11511.63
771.65	11554.64
771.83	11294.55
772.01	11540.30
772.19	11427.67
772.37	11532.11
772.55	11222.87
772.73	11398.99
772.91	11220.82
773.09	11161.43
773.27	11134.81
773.44	11065.18
773.62	11046.74
773.80	10940.25
773.98	11050.84
774.16	10946.39
774.34	11075.42
774.52	10850.14
774.70	10887.00
774.88	10663.77
775.06	10841.95
775.24	10874.71
775.42	10745.69
775.60	10747.74
775.78	10682.20
775.95	10647.39
776.13	10557.28
776.31	10702.68
776.49	10827.61
776.67	10628.96
776.85	10514.27
777.03	10608.48
777.21	10395.49
777.39	10657.63
777.57	10315.62
777.75	10588.00
777.92	10536.80
778.10	10616.67
778.28	10440.54
778.46	10387.30
778.64	10348.39
778.82	10407.78
779.00	10307.43
779.18	10356.58
779.36	10262.37
779.53	10403.68
779.71	10518.37
779.89	10596.19
780.07	10686.30
780.25	10661.73
780.43	10643.29
780.61	10686.30
780.79	10348.39
780.96	10583.90
781.14	10413.92
781.32	10526.56
781.50	10489.70
781.68	10172.26
781.86	10227.56
782.04	10415.97
782.21	10207.08
782.39	10028.90
782.57	10266.47
782.75	10182.50
782.93	10102.63
783.11	10008.42
783.29	10059.62
783.46	9992.04
783.64	9938.79
783.82	9940.84
784.00	10071.91
784.18	9901.93
784.36	10024.81
784.54	10186.60
784.71	10024.81
784.89	9934.70
785.07	9873.26
785.25	9957.22
785.43	9981.80
785.60	9852.78
785.78	9832.30
785.96	9865.07
786.14	9883.50
786.32	9707.37
786.50	9959.27
786.67	9637.74
786.85	9899.88
787.03	9750.38
787.21	10205.03
787.39	9994.09
787.56	10094.44
787.74	10037.09
787.92	10000.23
788.10	9844.59
788.28	9795.43
788.45	9844.59
788.63	9678.70
788.81	9711.47
788.99	9514.86
789.17	9695.08
789.34	9461.62
789.52	9437.04
789.70	9414.51
789.88	9547.63
790.06	9633.64
790.23	9564.01
790.41	9596.78
790.59	9355.12
790.77	9381.74
790.95	9611.12
791.12	9572.21
791.30	9533.29
791.48	9394.03
791.66	9447.28
791.83	9252.72
792.01	9461.62
792.19	9582.45
792.37	9543.53
792.54	9697.13
792.72	9832.30
792.90	10055.53
793.08	9994.09
793.25	9822.06
793.43	9942.89
793.61	9858.92
793.79	9693.04
793.96	9635.69
794.14	9715.56
794.32	9510.77
794.50	9629.55
794.67	9371.50
794.85	9152.37
795.03	9222.00
795.21	8867.70
795.38	9070.45
795.56	8912.76
795.74	8998.77
795.92	8910.71
796.09	8994.68
796.27	9127.80
796.45	9052.02
796.62	8988.53
796.80	9006.97
796.98	8982.39
797.16	8853.37
797.33	9086.84
797.51	8734.59
797.69	8859.51
797.86	8968.06
798.04	8810.36
798.22	8908.66
798.40	8804.22
798.57	8882.04
798.75	8742.78
798.93	8732.54
799.10	8804.22
799.28	8605.56
799.46	8755.07
799.63	8652.67
799.81	8732.54
799.99	8658.81
800.17	8607.61
800.34	8654.72
800.52	8542.08
800.70	8527.74
800.87	8791.93
801.05	8583.04
801.23	8497.02
801.40	8626.04
801.58	8552.32
801.76	8580.99
801.93	8521.60
802.11	8509.31
802.29	8556.41
802.46	8478.59
802.64	8587.13
802.82	8499.07
802.99	8378.24
803.17	8380.29
803.35	8548.22
803.52	8357.76
803.70	8523.65
803.88	8521.60
804.05	8273.79
804.23	8349.57
804.41	8476.54
804.58	8583.04
804.76	8533.89
804.94	8664.96
805.11	8714.11
805.29	8904.57
805.46	8863.61
805.64	8664.96
805.82	8654.72
805.99	8560.51
806.17	8494.97
806.35	8605.56
806.52	8443.78
806.70	8566.65
806.87	8486.78
807.05	8318.85
807.23	8478.59
807.40	8515.45
807.58	8359.81
807.76	8226.69
807.93	8376.19
808.11	8253.31
808.28	8316.80
808.46	8322.94
808.64	8257.41
808.81	8159.11
808.99	8292.23
809.16	8249.22
809.34	8183.68
809.52	8165.25
809.69	8320.90
809.87	8212.35
810.04	8120.20
810.22	8269.70
810.40	8212.35
810.57	8259.46
810.75	8263.55
810.92	8200.07
811.10	8023.94
811.28	8109.96
811.45	8083.33
811.63	7980.93
811.80	7886.73
811.98	8103.81
812.15	8011.65
812.33	8124.29
812.51	8171.40
812.68	8126.34
812.86	8095.62
813.03	8359.81
813.21	8243.07
813.38	8075.14
813.56	8177.54
813.74	8097.67
813.91	8103.81
814.09	7872.39
814.26	8257.41
814.44	8007.56
814.61	7976.84
814.79	7778.19
814.96	7954.31
815.14	7903.11
815.31	8044.42
815.49	8120.20
815.67	7917.45
815.84	8030.09
816.02	8152.96
816.19	8007.56
816.37	8073.09
816.54	8013.70
816.72	7999.37
816.89	8030.09
817.07	8116.10
817.24	7763.85
817.42	7911.30
817.59	7958.41
817.77	7901.06
817.94	7724.94
818.12	7888.78
818.29	7858.06
818.47	7923.59
818.64	7860.10
818.82	7845.77
818.99	7980.93
819.17	7765.90
819.34	7858.06
819.52	7982.98
819.69	7915.40
819.87	8116.10
820.04	8101.76
820.22	8079.24
820.39	7907.21
820.57	7866.25
820.74	8019.85
820.92	8032.13
821.09	7659.40
821.27	7706.51
821.44	7827.34
821.62	7813.00
821.79	7815.05
821.97	7989.13
822.14	7860.10
822.32	7802.76
822.49	7757.71
822.67	7769.99
822.84	7759.75
823.02	7794.57
823.19	7753.61
823.37	7708.55
823.54	7765.90
823.72	7522.19
823.89	7638.92
824.06	7769.99
824.24	7597.96
824.41	7618.44
824.59	7653.26
824.76	7688.07
824.94	7659.40
825.11	7606.16
825.29	7604.11
825.46	7866.25
825.63	7899.02
825.81	8009.61
825.98	8083.33
826.16	7952.26
826.33	7974.79
826.51	7825.29
826.68	8003.46
826.86	7892.87
827.03	7786.38
827.20	7786.38
827.38	7653.26
827.55	7675.79
827.73	7509.90
827.90	7776.14
828.07	7514.00
828.25	7669.64
828.42	7532.43
828.60	7628.68
828.77	7530.38
828.95	7538.57
829.12	7464.85
829.29	7557.00
829.47	7464.85
829.64	7493.52
829.82	7491.47
829.99	7536.52
830.16	7444.37
830.34	7274.38
830.51	7387.02
830.69	7376.78
830.86	7262.10
831.03	7128.98
831.21	7313.30
831.38	7348.11
831.55	7305.10
831.73	7403.41
831.90	7372.69
832.08	7309.20
832.25	7374.74
832.42	7278.48
832.60	7403.41
832.77	7360.40
832.94	7393.17
833.12	7126.93
833.29	7307.15
833.47	7341.97
833.64	7395.22
833.81	7303.06
833.99	7210.90
834.16	7182.23
834.33	7323.54
834.51	7448.46
834.68	7141.27
834.85	7292.82
835.03	7063.44
835.20	7171.99
835.37	7200.66
835.55	7165.84
835.72	7198.61
835.90	7239.57
836.07	7135.12
836.24	7274.38
836.42	7036.82
836.59	7102.36
836.76	7028.63
836.94	7288.72
837.11	7016.34
837.28	7081.88
837.46	7092.12
837.63	7305.10
837.80	7133.08
837.97	7051.16
838.15	6946.71
838.32	6989.72
838.49	7022.48
838.67	7049.11
838.84	7114.64
839.01	7010.20
839.19	7206.80
839.36	6872.98
839.53	7208.85
839.71	7145.36
839.88	6930.33
840.05	6954.90
840.22	7012.24
840.40	6946.71
840.57	7016.34
840.74	7030.68
840.92	6983.57
841.09	7186.32
841.26	6938.52
841.43	7053.20
841.61	6940.57
841.78	7032.72
841.95	6877.08
842.13	6993.81
842.30	7006.10
842.47	7071.64
842.64	6897.56
842.82	6879.13
842.99	6985.62
843.16	6938.52
843.34	6977.43
843.51	7018.39
843.68	6915.99
843.85	6899.61
844.03	6875.03
844.20	6725.53
844.37	6909.85
844.54	6846.36
844.72	6733.72
844.89	6946.71
845.06	6756.25
845.23	6866.84
845.41	6737.82
845.58	7128.98
845.75	6832.02
845.92	6905.75
846.10	6965.14
846.27	6762.39
846.44	6807.45
846.61	6926.23
846.78	6803.35
846.96	6832.02
847.13	6780.82
847.30	6758.30
847.47	6760.34
847.65	6872.98
847.82	6692.76
847.99	6991.77
848.16	6840.22
848.33	6754.20
848.51	6676.38
848.68	6756.25
848.85	6776.73
849.02	6743.96
849.19	6723.48
849.37	6637.47
849.54	6700.95
849.71	6678.43
849.88	6674.33
850.05	6496.16
850.23	6707.10
850.40	6688.67
850.57	6711.19
850.74	6686.62
850.91	6723.48
851.09	6547.36
851.26	6703.00
851.43	6694.81
851.60	6641.56
851.77	6668.19
851.95	6631.32
852.12	6686.62
852.29	6635.42
852.46	6739.87
852.63	6784.92
852.80	6526.88
852.98	6528.92
853.15	6696.86
853.32	6686.62
853.49	6664.09
853.66	6633.37
853.83	6592.41
854.01	6424.48
854.18	6449.05
854.35	6692.76
854.52	6567.84
854.69	6522.78
854.86	6371.23
855.03	6539.16
855.21	6610.84
855.38	6506.40
855.55	6490.01
855.72	6563.74
855.89	6455.20
856.06	6494.11
856.23	6412.19
856.41	6467.49
856.58	6350.75
856.75	6399.90
856.92	6473.63
857.09	6315.94
857.26	6340.51
857.43	6328.22
857.60	6422.43
857.78	6381.47
857.95	6471.58
858.12	6297.50
858.29	6404.00
858.46	6385.57
858.63	6469.53
858.80	6354.85
858.97	6197.15
859.14	6354.85
859.32	6291.36
859.49	6238.11
859.66	6264.74
859.83	6291.36
860.00	6238.11
860.17	6291.36
860.34	6305.70
860.51	6184.87
860.68	6397.85
860.85	6127.52
861.02	6166.43
861.20	6047.65
861.37	6182.82
861.54	6057.89
861.71	6285.22
861.88	6117.28
862.05	6135.71
862.22	6213.54
862.39	5951.40
862.56	6160.29
862.73	6137.76
862.90	6111.14
863.07	6084.52
863.24	6156.19
863.41	6199.20
863.59	5986.21
863.76	6074.28
863.93	5875.62
864.10	6066.08
864.27	5865.38
864.44	5949.35
864.61	5947.30
864.78	5916.58
864.95	5953.45
865.12	5998.50
865.29	5765.03
865.46	6014.88
865.63	5810.09
865.80	5771.18
865.97	5930.92
866.14	5871.53
866.31	5791.66
866.48	5877.67
866.65	5830.57
866.82	5781.42
866.99	5744.55
867.16	5955.49
867.33	5734.31
867.50	5648.30
867.67	5746.60
867.84	5642.15
868.01	5685.16
868.18	5777.32
868.35	5742.50
868.52	5668.78
868.69	5769.13
868.86	5509.04
869.03	5701.54
869.20	5603.24
869.37	5545.90
869.54	5609.39
869.71	5578.67
869.88	5433.26
870.05	5427.12
870.22	5482.41
870.39	5420.97
870.56	5318.57
870.73	5429.17
870.90	5427.12
871.07	5484.46
871.24	5410.73
871.41	5482.41
871.58	5408.69
871.75	5312.43
871.92	5302.19
872.09	5451.69
872.26	5271.47
872.43	5291.95
872.60	5339.05
872.77	5259.18
872.94	5279.66
873.11	5312.43
873.28	5185.46
873.45	4947.89
873.62	5244.85
873.79	5023.67
873.96	5066.67
874.13	5115.83
874.30	5150.64
874.47	5185.46
874.64	5052.34
874.80	5181.36
874.97	5011.38
875.14	5146.55
875.31	5033.91
875.48	5001.14
875.65	5175.22
875.82	4966.32
875.99	4962.23
876.16	4923.32
876.33	5021.62
876.50	4788.15
876.67	5001.14
876.84	4925.36
877.01	4902.84
877.17	4814.77
877.34	4857.78
877.51	4833.21
877.68	4726.71
877.85	4661.18
878.02	4763.58
878.19	4868.02
878.36	4736.95
878.53	4659.13
878.70	4687.80
878.87	4659.13
879.03	4695.99
879.20	4714.42
879.37	4544.44
879.54	4558.78
879.71	4458.43
879.88	4601.79
880.05	4593.59
880.22	4560.83
880.39	4515.77
880.55	4427.71
880.72	4540.35
880.89	4364.22
881.06	4450.24
881.23	4347.84
881.40	4427.71
881.57	4349.89
881.74	4372.41
881.90	4306.88
882.07	4198.34
882.24	4308.93
882.41	4335.55
882.58	4282.30
882.75	4331.45
882.92	4267.97
883.08	4124.61
883.25	4233.15
883.42	4280.25
883.59	4120.51
883.76	4138.94
883.93	4112.32
884.09	4104.13
884.26	4003.78
884.43	4054.98
884.60	4024.26
884.77	4050.88
884.94	4022.21
885.10	3975.11
885.27	3925.96
885.44	4032.45
885.61	3928.00
885.78	3954.63
885.95	4046.79
886.11	3850.18
886.28	3880.90
886.45	3938.24
886.62	3833.80
886.79	3862.47
886.96	3758.02
887.12	3768.26
887.29	3790.79
887.46	3796.93
887.63	3796.93
887.80	3747.78
887.96	3672.01
888.13	3712.97
888.30	3792.84
888.47	3762.12
888.64	3635.14
888.80	3669.96
888.97	3579.85
889.14	3487.69
889.31	3610.57
889.47	3665.86
889.64	3516.36
889.81	3518.41
889.98	3547.08
890.15	3502.03
890.31	3491.79
890.48	3491.79
890.65	3491.79
890.82	3491.79
890.98	3491.79
891.15	3491.79
>>>>>End Processed Spectral Data<<<<<
