SpectraSuite Data File
++++++++++++++++++++++++++++++++++++
Date: Fri Jan 24 17:02:36 MST 2020
User: Molly
Dark Spectrum Present: Yes
Reference Spectrum Present: Yes
Number of Sampled Component Spectra: 1
Spectrometers: USB4E03280
Integration Time (usec): 32000 (USB4E03280)
Spectra Averaged: 1 (USB4E03280)
Boxcar Smoothing: 0 (USB4E03280)
Correct for Electrical Dark: No (USB4E03280)
Strobe/Lamp Enabled: Yes (USB4E03280)
Correct for Detector Non-linearity: No (USB4E03280)
Correct for Stray Light: No (USB4E03280)
Number of Pixels in Processed Spectrum: 3648
>>>>>Begin Processed Spectral Data<<<<<
177.66	1179.63
177.88	1179.63
178.10	1179.63
178.32	1210.35
178.54	1292.27
178.76	1153.01
178.98	1236.97
179.19	1253.36
179.41	1210.35
179.63	1261.55
179.85	1179.63
180.07	1257.45
180.29	1236.97
180.51	1163.25
180.72	1222.64
180.94	1230.83
181.16	1181.68
181.38	1187.82
181.60	1214.45
181.82	1236.97
182.04	1251.31
182.25	1216.49
182.47	1241.07
182.69	1253.36
182.91	1220.59
183.13	1193.97
183.35	1216.49
183.56	1179.63
183.78	1255.40
184.00	1284.08
184.22	1241.07
184.44	1161.20
184.66	1216.49
184.87	1161.20
185.09	1234.93
185.31	1216.49
185.53	1249.26
185.75	1234.93
185.97	1234.93
186.18	1239.02
186.40	1183.73
186.62	1214.45
186.84	1224.69
187.06	1243.12
187.28	1259.50
187.49	1284.08
187.71	1271.79
187.93	1282.03
188.15	1204.21
188.37	1277.93
188.59	1245.16
188.80	1226.73
189.02	1298.41
189.24	1286.12
189.46	1210.35
189.68	1279.98
189.89	1220.59
190.11	1193.97
190.33	1251.31
190.55	1212.40
190.77	1304.56
190.98	1230.83
191.20	1183.73
191.42	1204.21
191.64	1224.69
191.86	1155.05
192.07	1202.16
192.29	1253.36
192.51	1218.54
192.73	1310.70
192.95	1277.93
193.16	1171.44
193.38	1245.16
193.60	1282.03
193.82	1198.06
194.04	1187.82
194.25	1249.26
194.47	1179.63
194.69	1155.05
194.91	1216.49
195.13	1198.06
195.34	1196.01
195.56	1214.45
195.78	1183.73
196.00	1230.83
196.22	1263.60
196.43	1228.78
196.65	1239.02
196.87	1239.02
197.09	1239.02
197.30	1189.87
197.52	1193.97
197.74	1234.93
197.96	1234.93
198.18	1226.73
198.39	1224.69
198.61	1220.59
198.83	1222.64
199.05	1132.53
199.26	1196.01
199.48	1239.02
199.70	1196.01
199.92	1171.44
200.13	1239.02
200.35	1216.49
200.57	1226.73
200.79	1294.32
201.00	1245.16
201.22	1187.82
201.44	1255.40
201.66	1294.32
201.88	1304.56
202.09	1169.39
202.31	1271.79
202.53	1294.32
202.75	1294.32
202.96	1271.79
203.18	1253.36
203.40	1236.97
203.62	1241.07
203.83	1300.46
204.05	1173.49
204.27	1212.40
204.49	1249.26
204.70	1269.74
204.92	1181.68
205.14	1234.93
205.35	1234.93
205.57	1300.46
205.79	1236.97
206.01	1179.63
206.22	1196.01
206.44	1257.45
206.66	1316.84
206.88	1234.93
207.09	1214.45
207.31	1314.80
207.53	1202.16
207.75	1228.78
207.96	1226.73
208.18	1263.60
208.40	1198.06
208.61	1279.98
208.83	1187.82
209.05	1279.98
209.27	1271.79
209.48	1228.78
209.70	1253.36
209.92	1226.73
210.14	1193.97
210.35	1167.34
210.57	1277.93
210.79	1202.16
211.00	1251.31
211.22	1282.03
211.44	1198.06
211.66	1224.69
211.87	1191.92
212.09	1308.65
212.31	1220.59
212.52	1196.01
212.74	1255.40
212.96	1232.88
213.17	1277.93
213.39	1282.03
213.61	1232.88
213.83	1304.56
214.04	1220.59
214.26	1191.92
214.48	1218.54
214.69	1181.68
214.91	1167.34
215.13	1247.21
215.34	1169.39
215.56	1253.36
215.78	1292.27
216.00	1204.21
216.21	1241.07
216.43	1275.88
216.65	1198.06
216.86	1279.98
217.08	1196.01
217.30	1277.93
217.51	1218.54
217.73	1251.31
217.95	1191.92
218.16	1222.64
218.38	1181.68
218.60	1286.12
218.81	1236.97
219.03	1161.20
219.25	1198.06
219.46	1222.64
219.68	1214.45
219.90	1282.03
220.11	1218.54
220.33	1226.73
220.55	1249.26
220.76	1212.40
220.98	1196.01
221.20	1302.51
221.41	1212.40
221.63	1239.02
221.85	1183.73
222.06	1243.12
222.28	1214.45
222.50	1234.93
222.71	1232.88
222.93	1232.88
223.15	1230.83
223.36	1312.75
223.58	1226.73
223.80	1210.35
224.01	1228.78
224.23	1259.50
224.45	1282.03
224.66	1189.87
224.88	1181.68
225.10	1304.56
225.31	1236.97
225.53	1181.68
225.75	1202.16
225.96	1210.35
226.18	1153.01
226.39	1204.21
226.61	1245.16
226.83	1226.73
227.04	1245.16
227.26	1261.55
227.48	1251.31
227.69	1224.69
227.91	1218.54
228.13	1253.36
228.34	1257.45
228.56	1245.16
228.77	1202.16
228.99	1179.63
229.21	1249.26
229.42	1255.40
229.64	1261.55
229.86	1224.69
230.07	1329.13
230.29	1241.07
230.50	1253.36
230.72	1206.25
230.94	1177.58
231.15	1259.50
231.37	1208.30
231.58	1257.45
231.80	1253.36
232.02	1187.82
232.23	1245.16
232.45	1271.79
232.67	1218.54
232.88	1236.97
233.10	1269.74
233.31	1232.88
233.53	1245.16
233.75	1249.26
233.96	1241.07
234.18	1220.59
234.39	1179.63
234.61	1239.02
234.83	1269.74
235.04	1222.64
235.26	1144.81
235.47	1187.82
235.69	1292.27
235.91	1185.77
236.12	1236.97
236.34	1200.11
236.55	1255.40
236.77	1261.55
236.99	1167.34
237.20	1261.55
237.42	1245.16
237.63	1196.01
237.85	1261.55
238.06	1210.35
238.28	1202.16
238.50	1251.31
238.71	1290.22
238.93	1255.40
239.14	1341.42
239.36	1257.45
239.58	1193.97
239.79	1193.97
240.01	1210.35
240.22	1216.49
240.44	1253.36
240.65	1228.78
240.87	1327.08
241.09	1146.86
241.30	1175.53
241.52	1220.59
241.73	1179.63
241.95	1241.07
242.16	1226.73
242.38	1224.69
242.59	1253.36
242.81	1267.69
243.03	1320.94
243.24	1222.64
243.46	1204.21
243.67	1228.78
243.89	1204.21
244.10	1214.45
244.32	1206.25
244.53	1232.88
244.75	1189.87
244.97	1198.06
245.18	1259.50
245.40	1159.15
245.61	1271.79
245.83	1202.16
246.04	1236.97
246.26	1241.07
246.47	1269.74
246.69	1243.12
246.90	1302.51
247.12	1218.54
247.34	1277.93
247.55	1234.93
247.77	1228.78
247.98	1224.69
248.20	1204.21
248.41	1257.45
248.63	1261.55
248.84	1198.06
249.06	1163.25
249.27	1226.73
249.49	1253.36
249.70	1247.21
249.92	1234.93
250.13	1277.93
250.35	1218.54
250.56	1241.07
250.78	1144.81
251.00	1157.10
251.21	1296.36
251.43	1210.35
251.64	1253.36
251.86	1284.08
252.07	1271.79
252.29	1277.93
252.50	1216.49
252.72	1302.51
252.93	1259.50
253.15	1261.55
253.36	1234.93
253.58	1253.36
253.79	1294.32
254.01	1337.32
254.22	1269.74
254.44	1208.30
254.65	1259.50
254.87	1253.36
255.08	1226.73
255.30	1212.40
255.51	1144.81
255.73	1257.45
255.94	1275.88
256.16	1271.79
256.37	1294.32
256.59	1187.82
256.80	1269.74
257.02	1247.21
257.23	1146.86
257.45	1257.45
257.66	1259.50
257.88	1232.88
258.09	1206.25
258.31	1253.36
258.52	1189.87
258.74	1245.16
258.95	1230.83
259.16	1208.30
259.38	1171.44
259.59	1308.65
259.81	1146.86
260.02	1277.93
260.24	1269.74
260.45	1226.73
260.67	1216.49
260.88	1271.79
261.10	1239.02
261.31	1212.40
261.53	1228.78
261.74	1296.36
261.96	1155.05
262.17	1261.55
262.39	1175.53
262.60	1259.50
262.81	1304.56
263.03	1187.82
263.24	1187.82
263.46	1261.55
263.67	1247.21
263.89	1263.60
264.10	1243.12
264.32	1210.35
264.53	1322.99
264.75	1241.07
264.96	1269.74
265.17	1253.36
265.39	1198.06
265.60	1128.43
265.82	1224.69
266.03	1255.40
266.25	1263.60
266.46	1173.49
266.68	1232.88
266.89	1206.25
267.10	1234.93
267.32	1247.21
267.53	1222.64
267.75	1249.26
267.96	1204.21
268.18	1224.69
268.39	1226.73
268.61	1189.87
268.82	1212.40
269.03	1189.87
269.25	1218.54
269.46	1161.20
269.68	1189.87
269.89	1236.97
270.11	1261.55
270.32	1189.87
270.53	1212.40
270.75	1265.64
270.96	1228.78
271.18	1241.07
271.39	1298.41
271.60	1216.49
271.82	1187.82
272.03	1202.16
272.25	1261.55
272.46	1251.31
272.68	1251.31
272.89	1249.26
273.10	1185.77
273.32	1210.35
273.53	1247.21
273.75	1245.16
273.96	1241.07
274.17	1253.36
274.39	1202.16
274.60	1173.49
274.82	1251.31
275.03	1212.40
275.24	1243.12
275.46	1220.59
275.67	1220.59
275.89	1257.45
276.10	1269.74
276.31	1253.36
276.53	1179.63
276.74	1236.97
276.96	1234.93
277.17	1241.07
277.38	1259.50
277.60	1320.94
277.81	1191.92
278.02	1228.78
278.24	1308.65
278.45	1210.35
278.67	1232.88
278.88	1269.74
279.09	1251.31
279.31	1239.02
279.52	1226.73
279.73	1269.74
279.95	1236.97
280.16	1271.79
280.38	1202.16
280.59	1261.55
280.80	1263.60
281.02	1263.60
281.23	1249.26
281.44	1128.43
281.66	1210.35
281.87	1220.59
282.09	1236.97
282.30	1259.50
282.51	1241.07
282.73	1228.78
282.94	1257.45
283.15	1286.12
283.37	1241.07
283.58	1179.63
283.79	1288.17
284.01	1230.83
284.22	1216.49
284.43	1220.59
284.65	1202.16
284.86	1275.88
285.07	1302.51
285.29	1224.69
285.50	1204.21
285.72	1224.69
285.93	1202.16
286.14	1269.74
286.36	1230.83
286.57	1226.73
286.78	1185.77
287.00	1239.02
287.21	1241.07
287.42	1220.59
287.64	1236.97
287.85	1286.12
288.06	1220.59
288.28	1218.54
288.49	1196.01
288.70	1271.79
288.92	1239.02
289.13	1267.69
289.34	1177.58
289.56	1241.07
289.77	1275.88
289.98	1216.49
290.19	1220.59
290.41	1247.21
290.62	1226.73
290.83	1198.06
291.05	1245.16
291.26	1261.55
291.47	1206.25
291.69	1165.29
291.90	1236.97
292.11	1286.12
292.33	1234.93
292.54	1187.82
292.75	1167.34
292.97	1236.97
293.18	1216.49
293.39	1183.73
293.60	1226.73
293.82	1234.93
294.03	1198.06
294.24	1222.64
294.46	1181.68
294.67	1265.64
294.88	1267.69
295.10	1275.88
295.31	1161.20
295.52	1185.77
295.73	1155.05
295.95	1218.54
296.16	1202.16
296.37	1220.59
296.59	1142.77
296.80	1300.46
297.01	1222.64
297.22	1218.54
297.44	1251.31
297.65	1218.54
297.86	1282.03
298.08	1232.88
298.29	1292.27
298.50	1292.27
298.71	1171.44
298.93	1243.12
299.14	1193.97
299.35	1245.16
299.56	1187.82
299.78	1265.64
299.99	1216.49
300.20	1230.83
300.42	1189.87
300.63	1253.36
300.84	1226.73
301.05	1200.11
301.27	1230.83
301.48	1183.73
301.69	1245.16
301.90	1269.74
302.12	1228.78
302.33	1212.40
302.54	1212.40
302.75	1216.49
302.97	1224.69
303.18	1210.35
303.39	1216.49
303.60	1275.88
303.82	1220.59
304.03	1232.88
304.24	1206.25
304.45	1286.12
304.67	1236.97
304.88	1279.98
305.09	1271.79
305.30	1226.73
305.52	1185.77
305.73	1222.64
305.94	1187.82
306.15	1212.40
306.37	1302.51
306.58	1353.71
306.79	1198.06
307.00	1259.50
307.22	1288.17
307.43	1226.73
307.64	1171.44
307.85	1208.30
308.06	1282.03
308.28	1163.25
308.49	1167.34
308.70	1273.84
308.91	1179.63
309.13	1279.98
309.34	1230.83
309.55	1232.88
309.76	1210.35
309.97	1257.45
310.19	1175.53
310.40	1267.69
310.61	1220.59
310.82	1236.97
311.04	1212.40
311.25	1249.26
311.46	1222.64
311.67	1236.97
311.88	1271.79
312.10	1288.17
312.31	1189.87
312.52	1245.16
312.73	1191.92
312.94	1271.79
313.16	1247.21
313.37	1226.73
313.58	1249.26
313.79	1202.16
314.00	1245.16
314.22	1228.78
314.43	1275.88
314.64	1318.89
314.85	1236.97
315.06	1259.50
315.27	1245.16
315.49	1263.60
315.70	1247.21
315.91	1224.69
316.12	1193.97
316.33	1153.01
316.55	1245.16
316.76	1204.21
316.97	1189.87
317.18	1218.54
317.39	1202.16
317.60	1273.84
317.82	1179.63
318.03	1257.45
318.24	1232.88
318.45	1224.69
318.66	1308.65
318.88	1239.02
319.09	1196.01
319.30	1290.22
319.51	1277.93
319.72	1230.83
319.93	1163.25
320.15	1230.83
320.36	1187.82
320.57	1310.70
320.78	1157.10
320.99	1220.59
321.20	1177.58
321.41	1208.30
321.63	1241.07
321.84	1214.45
322.05	1249.26
322.26	1329.13
322.47	1269.74
322.68	1261.55
322.90	1241.07
323.11	1275.88
323.32	1241.07
323.53	1212.40
323.74	1189.87
323.95	1175.53
324.16	1232.88
324.38	1232.88
324.59	1249.26
324.80	1216.49
325.01	1175.53
325.22	1228.78
325.43	1263.60
325.64	1261.55
325.85	1284.08
326.07	1159.15
326.28	1222.64
326.49	1241.07
326.70	1181.68
326.91	1316.84
327.12	1193.97
327.33	1208.30
327.54	1222.64
327.76	1251.31
327.97	1331.18
328.18	1224.69
328.39	1247.21
328.60	1220.59
328.81	1204.21
329.02	1241.07
329.23	1202.16
329.45	1247.21
329.66	1253.36
329.87	1253.36
330.08	1222.64
330.29	1173.49
330.50	1292.27
330.71	1202.16
330.92	1153.01
331.13	1255.40
331.34	1196.01
331.56	1275.88
331.77	1224.69
331.98	1226.73
332.19	1249.26
332.40	1265.64
332.61	1204.21
332.82	1218.54
333.03	1290.22
333.24	1228.78
333.45	1220.59
333.67	1245.16
333.88	1193.97
334.09	1318.89
334.30	1163.25
334.51	1257.45
334.72	1247.21
334.93	1245.16
335.14	1275.88
335.35	1236.97
335.56	1277.93
335.77	1263.60
335.98	1273.84
336.19	1216.49
336.41	1251.31
336.62	1269.74
336.83	1306.60
337.04	1216.49
337.25	1161.20
337.46	1277.93
337.67	1214.45
337.88	1267.69
338.09	1271.79
338.30	1232.88
338.51	1222.64
338.72	1277.93
338.93	1230.83
339.14	1228.78
339.35	1120.24
339.57	1251.31
339.78	1243.12
339.99	1116.14
340.20	1230.83
340.41	1216.49
340.62	1269.74
340.83	1236.97
341.04	1245.16
341.25	1175.53
341.46	1263.60
341.67	1204.21
341.88	1288.17
342.09	1243.12
342.30	1232.88
342.51	1202.16
342.72	1236.97
342.93	1191.92
343.14	1204.21
343.35	1216.49
343.56	1220.59
343.77	1210.35
343.98	1234.93
344.19	1222.64
344.41	1265.64
344.62	1183.73
344.83	1208.30
345.04	1292.27
345.25	1136.62
345.46	1230.83
345.67	1167.34
345.88	1251.31
346.09	1314.80
346.30	1220.59
346.51	1228.78
346.72	1177.58
346.93	1251.31
347.14	1265.64
347.35	1245.16
347.56	1263.60
347.77	1185.77
347.98	1300.46
348.19	1243.12
348.40	1243.12
348.61	1208.30
348.82	1255.40
349.03	1220.59
349.24	1212.40
349.45	1159.15
349.66	1304.56
349.87	1224.69
350.08	1241.07
350.29	1241.07
350.50	1253.36
350.71	1196.01
350.92	1241.07
351.13	1288.17
351.34	1271.79
351.55	1189.87
351.76	1124.33
351.97	1218.54
352.18	1224.69
352.39	1107.95
352.60	1230.83
352.81	1257.45
353.02	1196.01
353.23	1189.87
353.44	1241.07
353.65	1185.77
353.86	1232.88
354.07	1251.31
354.28	1241.07
354.49	1286.12
354.70	1206.25
354.90	1206.25
355.11	1159.15
355.32	1228.78
355.53	1212.40
355.74	1208.30
355.95	1200.11
356.16	1183.73
356.37	1251.31
356.58	1251.31
356.79	1216.49
357.00	1236.97
357.21	1165.29
357.42	1191.92
357.63	1193.97
357.84	1185.77
358.05	1142.77
358.26	1222.64
358.47	1236.97
358.68	1263.60
358.89	1198.06
359.10	1298.41
359.31	1214.45
359.52	1247.21
359.73	1257.45
359.93	1251.31
360.14	1226.73
360.35	1228.78
360.56	1198.06
360.77	1157.10
360.98	1249.26
361.19	1232.88
361.40	1277.93
361.61	1236.97
361.82	1243.12
362.03	1347.56
362.24	1167.34
362.45	1153.01
362.66	1226.73
362.87	1200.11
363.07	1269.74
363.28	1196.01
363.49	1202.16
363.70	1234.93
363.91	1220.59
364.12	1196.01
364.33	1224.69
364.54	1267.69
364.75	1292.27
364.96	1316.84
365.17	1279.98
365.38	1200.11
365.58	1208.30
365.79	1210.35
366.00	1200.11
366.21	1245.16
366.42	1196.01
366.63	1206.25
366.84	1282.03
367.05	1253.36
367.26	1249.26
367.47	1239.02
367.67	1273.84
367.88	1277.93
368.09	1296.36
368.30	1165.29
368.51	1257.45
368.72	1228.78
368.93	1234.93
369.14	1300.46
369.35	1247.21
369.56	1200.11
369.76	1282.03
369.97	1249.26
370.18	1232.88
370.39	1206.25
370.60	1277.93
370.81	1271.79
371.02	1282.03
371.23	1150.96
371.43	1218.54
371.64	1204.21
371.85	1220.59
372.06	1208.30
372.27	1200.11
372.48	1206.25
372.69	1284.08
372.90	1183.73
373.10	1243.12
373.31	1247.21
373.52	1273.84
373.73	1261.55
373.94	1222.64
374.15	1263.60
374.36	1136.62
374.56	1253.36
374.77	1216.49
374.98	1169.39
375.19	1220.59
375.40	1216.49
375.61	1214.45
375.82	1189.87
376.02	1279.98
376.23	1277.93
376.44	1259.50
376.65	1189.87
376.86	1253.36
377.07	1202.16
377.28	1212.40
377.48	1257.45
377.69	1161.20
377.90	1181.68
378.11	1198.06
378.32	1163.25
378.53	1261.55
378.73	1204.21
378.94	1196.01
379.15	1243.12
379.36	1247.21
379.57	1204.21
379.78	1243.12
379.98	1163.25
380.19	1214.45
380.40	1204.21
380.61	1212.40
380.82	1204.21
381.03	1286.12
381.23	1234.93
381.44	1271.79
381.65	1265.64
381.86	1222.64
382.07	1232.88
382.27	1251.31
382.48	1183.73
382.69	1159.15
382.90	1267.69
383.11	1257.45
383.32	1273.84
383.52	1331.18
383.73	1202.16
383.94	1220.59
384.15	1150.96
384.36	1288.17
384.56	1234.93
384.77	1257.45
384.98	1220.59
385.19	1224.69
385.40	1155.05
385.60	1204.21
385.81	1265.64
386.02	1261.55
386.23	1296.36
386.43	1298.41
386.64	1267.69
386.85	1241.07
387.06	1212.40
387.27	1247.21
387.47	1167.34
387.68	1263.60
387.89	1298.41
388.10	1220.59
388.31	1167.34
388.51	1245.16
388.72	1218.54
388.93	1216.49
389.14	1247.21
389.34	1177.58
389.55	1243.12
389.76	1220.59
389.97	1261.55
390.18	1257.45
390.38	1279.98
390.59	1193.97
390.80	1200.11
391.01	1269.74
391.21	1251.31
391.42	1191.92
391.63	1257.45
391.84	1185.77
392.04	1228.78
392.25	1200.11
392.46	1267.69
392.67	1251.31
392.87	1239.02
393.08	1243.12
393.29	1275.88
393.50	1269.74
393.70	1224.69
393.91	1216.49
394.12	1232.88
394.33	1179.63
394.53	1253.36
394.74	1243.12
394.95	1251.31
395.16	1271.79
395.36	1343.47
395.57	1236.97
395.78	1140.72
395.99	1249.26
396.19	1230.83
396.40	1265.64
396.61	1202.16
396.81	1193.97
397.02	1232.88
397.23	1247.21
397.44	1245.16
397.64	1292.27
397.85	1247.21
398.06	1241.07
398.27	1236.97
398.47	1200.11
398.68	1187.82
398.89	1220.59
399.09	1226.73
399.30	1191.92
399.51	1247.21
399.72	1232.88
399.92	1239.02
400.13	1191.92
400.34	1232.88
400.54	1206.25
400.75	1228.78
400.96	1241.07
401.17	1255.40
401.37	1214.45
401.58	1202.16
401.79	1243.12
401.99	1216.49
402.20	1239.02
402.41	1204.21
402.61	1187.82
402.82	1224.69
403.03	1310.70
403.24	1304.56
403.44	1234.93
403.65	1153.01
403.86	1259.50
404.06	1243.12
404.27	1204.21
404.48	1312.75
404.68	1337.32
404.89	1218.54
405.10	1251.31
405.30	1157.10
405.51	1228.78
405.72	1228.78
405.92	1243.12
406.13	1169.39
406.34	1273.84
406.54	1206.25
406.75	1173.49
406.96	1263.60
407.16	1290.22
407.37	1224.69
407.58	1267.69
407.78	1210.35
407.99	1286.12
408.20	1216.49
408.40	1255.40
408.61	1198.06
408.82	1202.16
409.02	1243.12
409.23	1261.55
409.44	1267.69
409.64	1146.86
409.85	1159.15
410.06	1271.79
410.26	1314.80
410.47	1191.92
410.68	1269.74
410.88	1249.26
411.09	1265.64
411.30	1165.29
411.50	1169.39
411.71	1279.98
411.91	1181.68
412.12	1220.59
412.33	1251.31
412.53	1247.21
412.74	1277.93
412.95	1208.30
413.15	1224.69
413.36	1206.25
413.57	1214.45
413.77	1157.10
413.98	1228.78
414.18	1232.88
414.39	1230.83
414.60	1300.46
414.80	1239.02
415.01	1198.06
415.22	1245.16
415.42	1236.97
415.63	1241.07
415.83	1253.36
416.04	1228.78
416.25	1302.51
416.45	1279.98
416.66	1267.69
416.86	1245.16
417.07	1314.80
417.28	1206.25
417.48	1298.41
417.69	1220.59
417.89	1245.16
418.10	1191.92
418.31	1232.88
418.51	1214.45
418.72	1316.84
418.92	1267.69
419.13	1204.21
419.34	1150.96
419.54	1189.87
419.75	1183.73
419.95	1273.84
420.16	1181.68
420.37	1269.74
420.57	1239.02
420.78	1210.35
420.98	1322.99
421.19	1177.58
421.40	1210.35
421.60	1232.88
421.81	1294.32
422.01	1269.74
422.22	1249.26
422.42	1236.97
422.63	1230.83
422.84	1204.21
423.04	1144.81
423.25	1310.70
423.45	1232.88
423.66	1271.79
423.86	1253.36
424.07	1198.06
424.28	1198.06
424.48	1290.22
424.69	1183.73
424.89	1245.16
425.10	1212.40
425.30	1236.97
425.51	1222.64
425.72	1312.75
425.92	1220.59
426.13	1208.30
426.33	1159.15
426.54	1245.16
426.74	1257.45
426.95	1247.21
427.15	1247.21
427.36	1236.97
427.56	1255.40
427.77	1169.39
427.98	1228.78
428.18	1193.97
428.39	1202.16
428.59	1224.69
428.80	1187.82
429.00	1198.06
429.21	1245.16
429.41	1218.54
429.62	1189.87
429.82	1247.21
430.03	1247.21
430.23	1236.97
430.44	1247.21
430.65	1202.16
430.85	1177.58
431.06	1251.31
431.26	1259.50
431.47	1230.83
431.67	1204.21
431.88	1261.55
432.08	1138.67
432.29	1261.55
432.49	1228.78
432.70	1193.97
432.90	1214.45
433.11	1279.98
433.31	1202.16
433.52	1189.87
433.72	1286.12
433.93	1245.16
434.13	1210.35
434.34	1253.36
434.54	1208.30
434.75	1210.35
434.95	1234.93
435.16	1206.25
435.36	1282.03
435.57	1241.07
435.77	1232.88
435.98	1261.55
436.18	1161.20
436.39	1216.49
436.59	1267.69
436.80	1232.88
437.00	1257.45
437.21	1273.84
437.41	1206.25
437.62	1300.46
437.82	1183.73
438.03	1249.26
438.23	1153.01
438.44	1148.91
438.64	1316.84
438.85	1245.16
439.05	1245.16
439.25	1320.94
439.46	1208.30
439.66	1198.06
439.87	1253.36
440.07	1259.50
440.28	1236.97
440.48	1161.20
440.69	1177.58
440.89	1206.25
441.10	1198.06
441.30	1239.02
441.51	1165.29
441.71	1228.78
441.92	1247.21
442.12	1206.25
442.32	1222.64
442.53	1181.68
442.73	1181.68
442.94	1251.31
443.14	1271.79
443.35	1263.60
443.55	1275.88
443.76	1249.26
443.96	1198.06
444.16	1241.07
444.37	1210.35
444.57	1253.36
444.78	1232.88
444.98	1273.84
445.19	1142.77
445.39	1277.93
445.60	1267.69
445.80	1251.31
446.00	1228.78
446.21	1273.84
446.41	1232.88
446.62	1279.98
446.82	1300.46
447.03	1200.11
447.23	1251.31
447.43	1249.26
447.64	1236.97
447.84	1255.40
448.05	1247.21
448.25	1230.83
448.45	1275.88
448.66	1273.84
448.86	1247.21
449.07	1251.31
449.27	1273.84
449.48	1265.64
449.68	1269.74
449.88	1189.87
450.09	1247.21
450.29	1155.05
450.50	1241.07
450.70	1171.44
450.90	1202.16
451.11	1230.83
451.31	1216.49
451.52	1241.07
451.72	1159.15
451.92	1208.30
452.13	1193.97
452.33	1204.21
452.54	1284.08
452.74	1228.78
452.94	1261.55
453.15	1198.06
453.35	1206.25
453.55	1222.64
453.76	1230.83
453.96	1279.98
454.17	1185.77
454.37	1243.12
454.57	1214.45
454.78	1210.35
454.98	1312.75
455.19	1193.97
455.39	1282.03
455.59	1232.88
455.80	1234.93
456.00	1282.03
456.20	1187.82
456.41	1243.12
456.61	1157.10
456.81	1306.60
457.02	1193.97
457.22	1222.64
457.43	1214.45
457.63	1210.35
457.83	1230.83
458.04	1245.16
458.24	1236.97
458.44	1236.97
458.65	1210.35
458.85	1312.75
459.05	1263.60
459.26	1351.66
459.46	1253.36
459.66	1269.74
459.87	1249.26
460.07	1279.98
460.27	1230.83
460.48	1265.64
460.68	1165.29
460.88	1308.65
461.09	1189.87
461.29	1173.49
461.49	1267.69
461.70	1279.98
461.90	1173.49
462.10	1241.07
462.31	1177.58
462.51	1267.69
462.71	1265.64
462.92	1249.26
463.12	1241.07
463.32	1288.17
463.53	1236.97
463.73	1185.77
463.93	1142.77
464.14	1232.88
464.34	1198.06
464.54	1298.41
464.75	1239.02
464.95	1208.30
465.15	1308.65
465.36	1253.36
465.56	1155.05
465.76	1259.50
465.96	1263.60
466.17	1183.73
466.37	1189.87
466.57	1202.16
466.78	1255.40
466.98	1214.45
467.18	1228.78
467.39	1191.92
467.59	1212.40
467.79	1259.50
467.99	1191.92
468.20	1304.56
468.40	1202.16
468.60	1284.08
468.81	1257.45
469.01	1269.74
469.21	1236.97
469.41	1212.40
469.62	1247.21
469.82	1298.41
470.02	1241.07
470.23	1271.79
470.43	1273.84
470.63	1236.97
470.83	1171.44
471.04	1224.69
471.24	1179.63
471.44	1232.88
471.65	1198.06
471.85	1273.84
472.05	1234.93
472.25	1265.64
472.46	1181.68
472.66	1277.93
472.86	1216.49
473.06	1218.54
473.27	1279.98
473.47	1249.26
473.67	1236.97
473.87	1204.21
474.08	1296.36
474.28	1247.21
474.48	1310.70
474.68	1265.64
474.89	1167.34
475.09	1241.07
475.29	1216.49
475.49	1263.60
475.70	1265.64
475.90	1275.88
476.10	1294.32
476.30	1243.12
476.51	1232.88
476.71	1214.45
476.91	1241.07
477.11	1222.64
477.32	1228.78
477.52	1228.78
477.72	1243.12
477.92	1220.59
478.12	1275.88
478.33	1269.74
478.53	1228.78
478.73	1275.88
478.93	1251.31
479.14	1146.86
479.34	1193.97
479.54	1236.97
479.74	1169.39
479.94	1247.21
480.15	1243.12
480.35	1216.49
480.55	1198.06
480.75	1214.45
480.96	1222.64
481.16	1277.93
481.36	1179.63
481.56	1206.25
481.76	1171.44
481.97	1288.17
482.17	1196.01
482.37	1228.78
482.57	1243.12
482.77	1245.16
482.98	1216.49
483.18	1216.49
483.38	1183.73
483.58	1222.64
483.78	1224.69
483.98	1198.06
484.19	1247.21
484.39	1189.87
484.59	1193.97
484.79	1183.73
484.99	1138.67
485.20	1202.16
485.40	1167.34
485.60	1230.83
485.80	1310.70
486.00	1265.64
486.20	1261.55
486.41	1302.51
486.61	1216.49
486.81	1216.49
487.01	1267.69
487.21	1232.88
487.42	1245.16
487.62	1226.73
487.82	1173.49
488.02	1138.67
488.22	1267.69
488.42	1275.88
488.62	1249.26
488.83	1284.08
489.03	1267.69
489.23	1243.12
489.43	1175.53
489.63	1241.07
489.83	1269.74
490.04	1210.35
490.24	1236.97
490.44	1169.39
490.64	1218.54
490.84	1210.35
491.04	1224.69
491.24	1196.01
491.45	1187.82
491.65	1202.16
491.85	1239.02
492.05	1267.69
492.25	1259.50
492.45	1286.12
492.65	1216.49
492.86	1236.97
493.06	1226.73
493.26	1208.30
493.46	1165.29
493.66	1206.25
493.86	1214.45
494.06	1212.40
494.26	1173.49
494.47	1243.12
494.67	1261.55
494.87	1282.03
495.07	1296.36
495.27	1228.78
495.47	1251.31
495.67	1302.51
495.87	1253.36
496.07	1198.06
496.28	1216.49
496.48	1153.01
496.68	1310.70
496.88	1247.21
497.08	1177.58
497.28	1245.16
497.48	1302.51
497.68	1210.35
497.88	1226.73
498.08	1212.40
498.29	1261.55
498.49	1214.45
498.69	1210.35
498.89	1228.78
499.09	1181.68
499.29	1267.69
499.49	1198.06
499.69	1228.78
499.89	1218.54
500.09	1234.93
500.29	1318.89
500.50	1239.02
500.70	1232.88
500.90	1224.69
501.10	1183.73
501.30	1277.93
501.50	1275.88
501.70	1261.55
501.90	1230.83
502.10	1220.59
502.30	1220.59
502.50	1181.68
502.70	1239.02
502.90	1228.78
503.10	1185.77
503.31	1177.58
503.51	1228.78
503.71	1327.08
503.91	1247.21
504.11	1167.34
504.31	1222.64
504.51	1218.54
504.71	1286.12
504.91	1265.64
505.11	1210.35
505.31	1226.73
505.51	1193.97
505.71	1267.69
505.91	1196.01
506.11	1228.78
506.31	1251.31
506.51	1245.16
506.71	1241.07
506.91	1318.89
507.11	1222.64
507.31	1320.94
507.51	1212.40
507.72	1236.97
507.92	1191.92
508.12	1273.84
508.32	1210.35
508.52	1222.64
508.72	1249.26
508.92	1249.26
509.12	1200.11
509.32	1294.32
509.52	1286.12
509.72	1138.67
509.92	1294.32
510.12	1163.25
510.32	1249.26
510.52	1173.49
510.72	1279.98
510.92	1232.88
511.12	1239.02
511.32	1222.64
511.52	1284.08
511.72	1269.74
511.92	1269.74
512.12	1245.16
512.32	1261.55
512.52	1159.15
512.72	1173.49
512.92	1222.64
513.12	1214.45
513.32	1257.45
513.52	1216.49
513.72	1239.02
513.92	1214.45
514.12	1263.60
514.32	1226.73
514.52	1263.60
514.72	1206.25
514.92	1222.64
515.12	1284.08
515.32	1212.40
515.52	1286.12
515.72	1224.69
515.92	1255.40
516.12	1249.26
516.32	1206.25
516.52	1261.55
516.72	1210.35
516.92	1187.82
517.12	1247.21
517.32	1230.83
517.51	1255.40
517.71	1210.35
517.91	1198.06
518.11	1282.03
518.31	1206.25
518.51	1253.36
518.71	1312.75
518.91	1255.40
519.11	1212.40
519.31	1157.10
519.51	1236.97
519.71	1245.16
519.91	1206.25
520.11	1245.16
520.31	1247.21
520.51	1200.11
520.71	1220.59
520.91	1179.63
521.11	1181.68
521.31	1179.63
521.51	1175.53
521.70	1175.53
521.90	1257.45
522.10	1251.31
522.30	1153.01
522.50	1167.34
522.70	1220.59
522.90	1200.11
523.10	1185.77
523.30	1206.25
523.50	1230.83
523.70	1234.93
523.90	1234.93
524.10	1216.49
524.30	1169.39
524.49	1222.64
524.69	1290.22
524.89	1210.35
525.09	1185.77
525.29	1239.02
525.49	1236.97
525.69	1206.25
525.89	1243.12
526.09	1286.12
526.29	1212.40
526.49	1196.01
526.68	1216.49
526.88	1228.78
527.08	1292.27
527.28	1202.16
527.48	1226.73
527.68	1257.45
527.88	1253.36
528.08	1300.46
528.28	1263.60
528.48	1196.01
528.67	1204.21
528.87	1292.27
529.07	1236.97
529.27	1212.40
529.47	1241.07
529.67	1255.40
529.87	1177.58
530.07	1224.69
530.26	1224.69
530.46	1247.21
530.66	1271.79
530.86	1226.73
531.06	1230.83
531.26	1275.88
531.46	1161.20
531.66	1249.26
531.85	1314.80
532.05	1282.03
532.25	1282.03
532.45	1206.25
532.65	1279.98
532.85	1220.59
533.05	1171.44
533.25	1218.54
533.44	1220.59
533.64	1284.08
533.84	1234.93
534.04	1290.22
534.24	1232.88
534.44	1183.73
534.63	1286.12
534.83	1239.02
535.03	1228.78
535.23	1267.69
535.43	1249.26
535.63	1155.05
535.83	1204.21
536.02	1298.41
536.22	1202.16
536.42	1239.02
536.62	1239.02
536.82	1239.02
537.02	1255.40
537.21	1263.60
537.41	1202.16
537.61	1216.49
537.81	1198.06
538.01	1298.41
538.21	1259.50
538.40	1271.79
538.60	1214.45
538.80	1163.25
539.00	1277.93
539.20	1302.51
539.39	1306.60
539.59	1292.27
539.79	1292.27
539.99	1282.03
540.19	1353.71
540.39	1384.43
540.58	1296.36
540.78	1380.33
540.98	1370.09
541.18	1337.32
541.38	1372.14
541.57	1351.66
541.77	1345.52
541.97	1427.43
542.17	1396.71
542.37	1437.67
542.56	1431.53
542.76	1382.38
542.96	1363.95
543.16	1345.52
543.35	1419.24
543.55	1406.95
543.75	1435.63
543.95	1415.15
544.15	1314.80
544.34	1411.05
544.54	1427.43
544.74	1427.43
544.94	1398.76
545.14	1456.11
545.33	1380.33
545.53	1415.15
545.73	1396.71
545.93	1347.56
546.12	1359.85
546.32	1337.32
546.52	1400.81
546.72	1359.85
546.91	1296.36
547.11	1273.84
547.31	1306.60
547.51	1396.71
547.70	1255.40
547.90	1273.84
548.10	1339.37
548.30	1296.36
548.50	1310.70
548.69	1269.74
548.89	1312.75
549.09	1286.12
549.29	1310.70
549.48	1345.52
549.68	1226.73
549.88	1239.02
550.07	1349.61
550.27	1228.78
550.47	1294.32
550.67	1269.74
550.86	1304.56
551.06	1284.08
551.26	1294.32
551.46	1277.93
551.65	1202.16
551.85	1308.65
552.05	1327.08
552.25	1257.45
552.44	1378.28
552.64	1290.22
552.84	1269.74
553.03	1290.22
553.23	1232.88
553.43	1318.89
553.63	1257.45
553.82	1284.08
554.02	1310.70
554.22	1253.36
554.41	1255.40
554.61	1204.21
554.81	1255.40
555.01	1216.49
555.20	1234.93
555.40	1196.01
555.60	1230.83
555.79	1173.49
555.99	1222.64
556.19	1318.89
556.38	1210.35
556.58	1226.73
556.78	1218.54
556.98	1290.22
557.17	1300.46
557.37	1220.59
557.57	1243.12
557.76	1243.12
557.96	1232.88
558.16	1212.40
558.35	1202.16
558.55	1236.97
558.75	1220.59
558.94	1259.50
559.14	1230.83
559.34	1316.84
559.53	1224.69
559.73	1236.97
559.93	1234.93
560.12	1239.02
560.32	1122.29
560.52	1251.31
560.71	1298.41
560.91	1224.69
561.11	1216.49
561.30	1210.35
561.50	1253.36
561.70	1208.30
561.89	1290.22
562.09	1142.77
562.29	1239.02
562.48	1284.08
562.68	1251.31
562.88	1224.69
563.07	1212.40
563.27	1179.63
563.47	1206.25
563.66	1310.70
563.86	1179.63
564.06	1206.25
564.25	1263.60
564.45	1251.31
564.64	1218.54
564.84	1304.56
565.04	1193.97
565.23	1271.79
565.43	1155.05
565.63	1239.02
565.82	1226.73
566.02	1226.73
566.22	1177.58
566.41	1239.02
566.61	1155.05
566.80	1239.02
567.00	1247.21
567.20	1220.59
567.39	1226.73
567.59	1189.87
567.78	1232.88
567.98	1212.40
568.18	1239.02
568.37	1241.07
568.57	1202.16
568.77	1177.58
568.96	1288.17
569.16	1259.50
569.35	1189.87
569.55	1230.83
569.75	1247.21
569.94	1189.87
570.14	1267.69
570.33	1185.77
570.53	1214.45
570.73	1265.64
570.92	1230.83
571.12	1206.25
571.31	1230.83
571.51	1214.45
571.71	1189.87
571.90	1226.73
572.10	1155.05
572.29	1249.26
572.49	1232.88
572.68	1277.93
572.88	1255.40
573.08	1171.44
573.27	1261.55
573.47	1271.79
573.66	1269.74
573.86	1234.93
574.05	1259.50
574.25	1179.63
574.45	1241.07
574.64	1267.69
574.84	1226.73
575.03	1230.83
575.23	1239.02
575.42	1306.60
575.62	1183.73
575.82	1269.74
576.01	1261.55
576.21	1294.32
576.40	1294.32
576.60	1269.74
576.79	1277.93
576.99	1212.40
577.18	1267.69
577.38	1275.88
577.57	1273.84
577.77	1261.55
577.97	1290.22
578.16	1263.60
578.36	1247.21
578.55	1245.16
578.75	1259.50
578.94	1222.64
579.14	1218.54
579.33	1267.69
579.53	1224.69
579.72	1267.69
579.92	1259.50
580.11	1251.31
580.31	1304.56
580.50	1249.26
580.70	1230.83
580.90	1286.12
581.09	1243.12
581.29	1277.93
581.48	1320.94
581.68	1294.32
581.87	1243.12
582.07	1239.02
582.26	1206.25
582.46	1290.22
582.65	1359.85
582.85	1306.60
583.04	1288.17
583.24	1304.56
583.43	1286.12
583.63	1243.12
583.82	1224.69
584.02	1290.22
584.21	1226.73
584.41	1288.17
584.60	1228.78
584.80	1298.41
584.99	1273.84
585.19	1228.78
585.38	1370.09
585.58	1277.93
585.77	1372.14
585.97	1318.89
586.16	1298.41
586.35	1345.52
586.55	1232.88
586.74	1271.79
586.94	1269.74
587.13	1277.93
587.33	1251.31
587.52	1302.51
587.72	1220.59
587.91	1257.45
588.11	1261.55
588.30	1273.84
588.50	1292.27
588.69	1339.37
588.89	1294.32
589.08	1216.49
589.28	1234.93
589.47	1308.65
589.66	1261.55
589.86	1331.18
590.05	1267.69
590.25	1263.60
590.44	1269.74
590.64	1282.03
590.83	1249.26
591.03	1232.88
591.22	1347.56
591.41	1304.56
591.61	1288.17
591.80	1251.31
592.00	1271.79
592.19	1329.13
592.39	1228.78
592.58	1275.88
592.78	1265.64
592.97	1251.31
593.16	1314.80
593.36	1286.12
593.55	1218.54
593.75	1267.69
593.94	1308.65
594.14	1277.93
594.33	1284.08
594.52	1286.12
594.72	1259.50
594.91	1316.84
595.11	1257.45
595.30	1239.02
595.49	1218.54
595.69	1226.73
595.88	1142.77
596.08	1257.45
596.27	1224.69
596.47	1286.12
596.66	1236.97
596.85	1239.02
597.05	1144.81
597.24	1236.97
597.44	1169.39
597.63	1247.21
597.82	1245.16
598.02	1239.02
598.21	1249.26
598.40	1265.64
598.60	1271.79
598.79	1189.87
598.99	1288.17
599.18	1288.17
599.37	1269.74
599.57	1302.51
599.76	1224.69
599.96	1230.83
600.15	1284.08
600.34	1214.45
600.54	1200.11
600.73	1370.09
600.92	1220.59
601.12	1267.69
601.31	1171.44
601.51	1241.07
601.70	1267.69
601.89	1255.40
602.09	1226.73
602.28	1234.93
602.47	1284.08
602.67	1245.16
602.86	1245.16
603.05	1196.01
603.25	1198.06
603.44	1302.51
603.63	1253.36
603.83	1218.54
604.02	1265.64
604.22	1236.97
604.41	1265.64
604.60	1236.97
604.80	1243.12
604.99	1302.51
605.18	1284.08
605.38	1200.11
605.57	1296.36
605.76	1234.93
605.96	1275.88
606.15	1228.78
606.34	1236.97
606.54	1212.40
606.73	1230.83
606.92	1265.64
607.12	1253.36
607.31	1183.73
607.50	1312.75
607.70	1308.65
607.89	1245.16
608.08	1282.03
608.28	1265.64
608.47	1257.45
608.66	1226.73
608.85	1325.04
609.05	1300.46
609.24	1322.99
609.43	1353.71
609.63	1392.62
609.82	1443.82
610.01	1413.10
610.21	1472.49
610.40	1454.06
610.59	1396.71
610.79	1452.01
610.98	1400.81
611.17	1357.80
611.36	1349.61
611.56	1441.77
611.75	1437.67
611.94	1253.36
612.14	1390.57
612.33	1304.56
612.52	1325.04
612.71	1351.66
612.91	1294.32
613.10	1300.46
613.29	1296.36
613.49	1333.23
613.68	1392.62
613.87	1353.71
614.06	1359.85
614.26	1355.76
614.45	1222.64
614.64	1327.08
614.83	1277.93
615.03	1273.84
615.22	1343.47
615.41	1165.29
615.60	1232.88
615.80	1267.69
615.99	1322.99
616.18	1259.50
616.38	1343.47
616.57	1263.60
616.76	1292.27
616.95	1220.59
617.15	1279.98
617.34	1318.89
617.53	1202.16
617.72	1239.02
617.92	1296.36
618.11	1224.69
618.30	1212.40
618.49	1267.69
618.68	1263.60
618.88	1150.96
619.07	1228.78
619.26	1273.84
619.45	1234.93
619.65	1245.16
619.84	1267.69
620.03	1331.18
620.22	1255.40
620.42	1318.89
620.61	1304.56
620.80	1298.41
620.99	1247.21
621.18	1245.16
621.38	1347.56
621.57	1218.54
621.76	1292.27
621.95	1200.11
622.15	1255.40
622.34	1263.60
622.53	1232.88
622.72	1284.08
622.91	1271.79
623.11	1239.02
623.30	1286.12
623.49	1251.31
623.68	1234.93
623.87	1208.30
624.07	1273.84
624.26	1298.41
624.45	1275.88
624.64	1253.36
624.83	1234.93
625.03	1230.83
625.22	1337.32
625.41	1236.97
625.60	1314.80
625.79	1284.08
625.98	1216.49
626.18	1189.87
626.37	1325.04
626.56	1220.59
626.75	1191.92
626.94	1259.50
627.14	1216.49
627.33	1228.78
627.52	1226.73
627.71	1222.64
627.90	1241.07
628.09	1241.07
628.29	1142.77
628.48	1279.98
628.67	1245.16
628.86	1196.01
629.05	1259.50
629.24	1265.64
629.43	1208.30
629.63	1206.25
629.82	1273.84
630.01	1249.26
630.20	1279.98
630.39	1234.93
630.58	1191.92
630.78	1218.54
630.97	1279.98
631.16	1191.92
631.35	1245.16
631.54	1253.36
631.73	1224.69
631.92	1306.60
632.11	1257.45
632.31	1343.47
632.50	1193.97
632.69	1177.58
632.88	1218.54
633.07	1230.83
633.26	1259.50
633.45	1273.84
633.65	1212.40
633.84	1206.25
634.03	1193.97
634.22	1218.54
634.41	1232.88
634.60	1142.77
634.79	1220.59
634.98	1218.54
635.17	1218.54
635.37	1282.03
635.56	1245.16
635.75	1230.83
635.94	1204.21
636.13	1292.27
636.32	1249.26
636.51	1236.97
636.70	1202.16
636.89	1204.21
637.08	1232.88
637.28	1341.42
637.47	1216.49
637.66	1218.54
637.85	1247.21
638.04	1290.22
638.23	1193.97
638.42	1236.97
638.61	1335.28
638.80	1232.88
638.99	1165.29
639.18	1224.69
639.38	1196.01
639.57	1204.21
639.76	1290.22
639.95	1234.93
640.14	1212.40
640.33	1249.26
640.52	1191.92
640.71	1159.15
640.90	1212.40
641.09	1216.49
641.28	1241.07
641.47	1222.64
641.66	1185.77
641.85	1277.93
642.04	1220.59
642.24	1204.21
642.43	1218.54
642.62	1556.46
642.81	1257.45
643.00	1251.31
643.19	1214.45
643.38	1187.82
643.57	1171.44
643.76	1251.31
643.95	1173.49
644.14	1245.16
644.33	1241.07
644.52	1255.40
644.71	1247.21
644.90	1234.93
645.09	1234.93
645.28	1277.93
645.47	1134.57
645.66	1253.36
645.85	1185.77
646.04	1302.51
646.23	1247.21
646.42	1179.63
646.61	1218.54
646.80	1196.01
646.99	1224.69
647.18	1253.36
647.37	1279.98
647.56	1275.88
647.75	1282.03
647.95	1261.55
648.14	1169.39
648.33	1247.21
648.52	1183.73
648.71	1263.60
648.90	1146.86
649.09	1204.21
649.28	1216.49
649.47	1302.51
649.66	1216.49
649.85	1279.98
650.04	1327.08
650.23	1277.93
650.42	1228.78
650.61	1228.78
650.79	1208.30
650.98	1165.29
651.17	1206.25
651.36	1232.88
651.55	1161.20
651.74	1247.21
651.93	1300.46
652.12	1226.73
652.31	1236.97
652.50	1247.21
652.69	1243.12
652.88	1255.40
653.07	1279.98
653.26	1239.02
653.45	1327.08
653.64	1198.06
653.83	1206.25
654.02	1251.31
654.21	1228.78
654.40	1259.50
654.59	1273.84
654.78	1257.45
654.97	1273.84
655.16	1247.21
655.35	1212.40
655.54	1243.12
655.73	1277.93
655.92	1265.64
656.11	1247.21
656.30	1286.12
656.48	1179.63
656.67	1239.02
656.86	1212.40
657.05	1249.26
657.24	1157.10
657.43	1308.65
657.62	1251.31
657.81	1222.64
658.00	1204.21
658.19	1187.82
658.38	1241.07
658.57	1243.12
658.76	1255.40
658.95	1284.08
659.13	1193.97
659.32	1177.58
659.51	1247.21
659.70	1277.93
659.89	1226.73
660.08	1226.73
660.27	1265.64
660.46	1247.21
660.65	1282.03
660.84	1261.55
661.03	1212.40
661.22	1241.07
661.40	1230.83
661.59	1155.05
661.78	1263.60
661.97	1284.08
662.16	1224.69
662.35	1218.54
662.54	1167.34
662.73	1228.78
662.92	1228.78
663.11	1243.12
663.29	1255.40
663.48	1220.59
663.67	1226.73
663.86	1249.26
664.05	1245.16
664.24	1173.49
664.43	1239.02
664.62	1202.16
664.80	1257.45
664.99	1277.93
665.18	1226.73
665.37	1155.05
665.56	1208.30
665.75	1259.50
665.94	1277.93
666.13	1181.68
666.31	1230.83
666.50	1161.20
666.69	1146.86
666.88	1126.38
667.07	1247.21
667.26	1245.16
667.45	1306.60
667.63	1259.50
667.82	1216.49
668.01	1275.88
668.20	1228.78
668.39	1249.26
668.58	1261.55
668.76	1216.49
668.95	1247.21
669.14	1163.25
669.33	1187.82
669.52	1224.69
669.71	1134.57
669.90	1193.97
670.08	1255.40
670.27	1239.02
670.46	1306.60
670.65	1253.36
670.84	1263.60
671.03	1216.49
671.21	1212.40
671.40	1286.12
671.59	1202.16
671.78	1275.88
671.97	1224.69
672.15	1226.73
672.34	1167.34
672.53	1226.73
672.72	1210.35
672.91	1249.26
673.09	1210.35
673.28	1251.31
673.47	1241.07
673.66	1220.59
673.85	1226.73
674.04	1185.77
674.22	1212.40
674.41	1269.74
674.60	1226.73
674.79	1202.16
674.98	1189.87
675.16	1234.93
675.35	1247.21
675.54	1202.16
675.73	1187.82
675.91	1251.31
676.10	1290.22
676.29	1161.20
676.48	1230.83
676.67	1204.21
676.85	1249.26
677.04	1210.35
677.23	1155.05
677.42	1236.97
677.60	1234.93
677.79	1208.30
677.98	1232.88
678.17	1200.11
678.36	1204.21
678.54	1267.69
678.73	1249.26
678.92	1241.07
679.11	1204.21
679.29	1226.73
679.48	1165.29
679.67	1179.63
679.86	1216.49
680.04	1255.40
680.23	1230.83
680.42	1241.07
680.61	1257.45
680.79	1210.35
680.98	1230.83
681.17	1300.46
681.36	1181.68
681.54	1212.40
681.73	1261.55
681.92	1286.12
682.11	1181.68
682.29	1226.73
682.48	1216.49
682.67	1236.97
682.85	1255.40
683.04	1218.54
683.23	1255.40
683.42	1257.45
683.60	1273.84
683.79	1196.01
683.98	1249.26
684.17	1243.12
684.35	1198.06
684.54	1216.49
684.73	1183.73
684.91	1208.30
685.10	1253.36
685.29	1253.36
685.48	1265.64
685.66	1222.64
685.85	1220.59
686.04	1138.67
686.22	1230.83
686.41	1230.83
686.60	1224.69
686.78	1269.74
686.97	1208.30
687.16	1327.08
687.35	1228.78
687.53	1234.93
687.72	1269.74
687.91	1232.88
688.09	1202.16
688.28	1202.16
688.47	1243.12
688.65	1236.97
688.84	1216.49
689.03	1232.88
689.21	1148.91
689.40	1218.54
689.59	1241.07
689.77	1204.21
689.96	1247.21
690.15	1239.02
690.33	1239.02
690.52	1263.60
690.71	1255.40
690.89	1251.31
691.08	1150.96
691.27	1165.29
691.45	1298.41
691.64	1187.82
691.83	1185.77
692.01	1257.45
692.20	1206.25
692.39	1175.53
692.57	1228.78
692.76	1288.17
692.95	1236.97
693.13	1349.61
693.32	1300.46
693.50	1171.44
693.69	1212.40
693.88	1255.40
694.06	1179.63
694.25	1304.56
694.44	1157.10
694.62	1267.69
694.81	1210.35
695.00	1249.26
695.18	1230.83
695.37	1200.11
695.55	1286.12
695.74	1286.12
695.93	1218.54
696.11	1292.27
696.30	1255.40
696.49	1327.08
696.67	1216.49
696.86	1255.40
697.04	1247.21
697.23	1265.64
697.42	1222.64
697.60	1179.63
697.79	1218.54
697.97	1241.07
698.16	1202.16
698.35	1255.40
698.53	1222.64
698.72	1251.31
698.90	1241.07
699.09	1222.64
699.28	1236.97
699.46	1253.36
699.65	1191.92
699.83	1230.83
700.02	1251.31
700.21	1243.12
700.39	1200.11
700.58	1249.26
700.76	1206.25
700.95	1288.17
701.13	1249.26
701.32	1279.98
701.51	1226.73
701.69	1208.30
701.88	1243.12
702.06	1263.60
702.25	1226.73
702.43	1253.36
702.62	1275.88
702.81	1161.20
702.99	1204.21
703.18	1279.98
703.36	1249.26
703.55	1253.36
703.73	1175.53
703.92	1251.31
704.10	1243.12
704.29	1208.30
704.48	1253.36
704.66	1214.45
704.85	1253.36
705.03	1228.78
705.22	1216.49
705.40	1228.78
705.59	1259.50
705.77	1210.35
705.96	1265.64
706.14	1290.22
706.33	1306.60
706.51	1322.99
706.70	1253.36
706.89	1288.17
707.07	1247.21
707.26	1327.08
707.44	1310.70
707.63	1267.69
707.81	1277.93
708.00	1245.16
708.18	1294.32
708.37	1282.03
708.55	1200.11
708.74	1316.84
708.92	1220.59
709.11	1306.60
709.29	1210.35
709.48	1325.04
709.66	1286.12
709.85	1288.17
710.03	1241.07
710.22	1300.46
710.40	1292.27
710.59	1249.26
710.77	1320.94
710.96	1261.55
711.14	1316.84
711.33	1304.56
711.51	1322.99
711.70	1288.17
711.88	1300.46
712.07	1384.43
712.25	1294.32
712.44	1312.75
712.62	1239.02
712.81	1312.75
712.99	1284.08
713.18	1335.28
713.36	1275.88
713.54	1261.55
713.73	1294.32
713.91	1267.69
714.10	1216.49
714.28	1277.93
714.47	1259.50
714.65	1243.12
714.84	1210.35
715.02	1300.46
715.21	1257.45
715.39	1329.13
715.58	1236.97
715.76	1259.50
715.94	1253.36
716.13	1181.68
716.31	1249.26
716.50	1265.64
716.68	1275.88
716.87	1284.08
717.05	1191.92
717.24	1267.69
717.42	1314.80
717.60	1234.93
717.79	1216.49
717.97	1241.07
718.16	1277.93
718.34	1255.40
718.53	1232.88
718.71	1259.50
718.89	1294.32
719.08	1290.22
719.26	1296.36
719.45	1232.88
719.63	1216.49
719.82	1251.31
720.00	1257.45
720.18	1241.07
720.37	1277.93
720.55	1251.31
720.74	1224.69
720.92	1200.11
721.10	1222.64
721.29	1288.17
721.47	1292.27
721.66	1239.02
721.84	1200.11
722.02	1247.21
722.21	1142.77
722.39	1251.31
722.58	1249.26
722.76	1224.69
722.94	1220.59
723.13	1273.84
723.31	1212.40
723.50	1251.31
723.68	1236.97
723.86	1282.03
724.05	1320.94
724.23	1302.51
724.41	1232.88
724.60	1234.93
724.78	1232.88
724.97	1261.55
725.15	1294.32
725.33	1228.78
725.52	1265.64
725.70	1253.36
725.88	1255.40
726.07	1239.02
726.25	1286.12
726.44	1241.07
726.62	1191.92
726.80	1224.69
726.99	1298.41
727.17	1302.51
727.35	1294.32
727.54	1218.54
727.72	1263.60
727.90	1294.32
728.09	1251.31
728.27	1245.16
728.45	1253.36
728.64	1302.51
728.82	1234.93
729.00	1193.97
729.19	1259.50
729.37	1279.98
729.55	1239.02
729.74	1226.73
729.92	1345.52
730.10	1206.25
730.29	1239.02
730.47	1249.26
730.65	1273.84
730.84	1216.49
731.02	1222.64
731.20	1241.07
731.39	1202.16
731.57	1255.40
731.75	1241.07
731.94	1198.06
732.12	1282.03
732.30	1302.51
732.49	1245.16
732.67	1255.40
732.85	1241.07
733.03	1245.16
733.22	1198.06
733.40	1208.30
733.58	1234.93
733.77	1208.30
733.95	1183.73
734.13	1228.78
734.32	1202.16
734.50	1267.69
734.68	1253.36
734.86	1236.97
735.05	1243.12
735.23	1304.56
735.41	1241.07
735.60	1265.64
735.78	1251.31
735.96	1294.32
736.14	1245.16
736.33	1224.69
736.51	1282.03
736.69	1220.59
736.87	1247.21
737.06	1302.51
737.24	1230.83
737.42	1234.93
737.61	1191.92
737.79	1257.45
737.97	1204.21
738.15	1265.64
738.34	1249.26
738.52	1296.36
738.70	1308.65
738.88	1208.30
739.07	1251.31
739.25	1236.97
739.43	1202.16
739.61	1206.25
739.80	1255.40
739.98	1312.75
740.16	1228.78
740.34	1277.93
740.52	1359.85
740.71	1228.78
740.89	1284.08
741.07	1243.12
741.25	1232.88
741.44	1196.01
741.62	1288.17
741.80	1169.39
741.98	1253.36
742.17	1261.55
742.35	1153.01
742.53	1222.64
742.71	1249.26
742.89	1255.40
743.08	1181.68
743.26	1257.45
743.44	1234.93
743.62	1312.75
743.80	1314.80
743.99	1263.60
744.17	1247.21
744.35	1300.46
744.53	1212.40
744.71	1220.59
744.90	1290.22
745.08	1212.40
745.26	1290.22
745.44	1292.27
745.62	1255.40
745.81	1261.55
745.99	1292.27
746.17	1230.83
746.35	1224.69
746.53	1257.45
746.72	1267.69
746.90	1327.08
747.08	1200.11
747.26	1247.21
747.44	1284.08
747.62	1265.64
747.81	1191.92
747.99	1259.50
748.17	1275.88
748.35	1277.93
748.53	1249.26
748.71	1267.69
748.90	1347.56
749.08	1251.31
749.26	1181.68
749.44	1265.64
749.62	1216.49
749.80	1255.40
749.99	1325.04
750.17	1247.21
750.35	1257.45
750.53	1282.03
750.71	1261.55
750.89	1265.64
751.07	1267.69
751.26	1265.64
751.44	1245.16
751.62	1265.64
751.80	1169.39
751.98	1183.73
752.16	1255.40
752.34	1234.93
752.53	1288.17
752.71	1259.50
752.89	1245.16
753.07	1329.13
753.25	1249.26
753.43	1232.88
753.61	1302.51
753.79	1228.78
753.98	1239.02
754.16	1271.79
754.34	1247.21
754.52	1226.73
754.70	1245.16
754.88	1202.16
755.06	1249.26
755.24	1239.02
755.42	1261.55
755.60	1220.59
755.79	1226.73
755.97	1167.34
756.15	1265.64
756.33	1220.59
756.51	1249.26
756.69	1153.01
756.87	1259.50
757.05	1265.64
757.23	1232.88
757.41	1251.31
757.60	1245.16
757.78	1245.16
757.96	1124.33
758.14	1335.28
758.32	1185.77
758.50	1273.84
758.68	1224.69
758.86	1294.32
759.04	1214.45
759.22	1247.21
759.40	1243.12
759.58	1275.88
759.76	1253.36
759.94	1243.12
760.13	1298.41
760.31	1216.49
760.49	1224.69
760.67	1110.00
760.85	1187.82
761.03	1216.49
761.21	1312.75
761.39	1271.79
761.57	1294.32
761.75	1247.21
761.93	1306.60
762.11	1245.16
762.29	1204.21
762.47	1206.25
762.65	1355.76
762.83	1279.98
763.01	1296.36
763.19	1298.41
763.37	1273.84
763.55	1300.46
763.73	1275.88
763.91	1230.83
764.09	1251.31
764.27	1294.32
764.45	1288.17
764.64	1245.16
764.82	1296.36
765.00	1304.56
765.18	1234.93
765.36	1257.45
765.54	1284.08
765.72	1228.78
765.90	1251.31
766.08	1255.40
766.26	1339.37
766.44	1228.78
766.62	1245.16
766.80	1257.45
766.98	1259.50
767.16	1329.13
767.34	1222.64
767.52	1269.74
767.70	1134.57
767.88	1296.36
768.06	1298.41
768.24	1277.93
768.42	1263.60
768.60	1230.83
768.78	1267.69
768.96	1189.87
769.13	1234.93
769.31	1279.98
769.49	1304.56
769.67	1261.55
769.85	1265.64
770.03	1232.88
770.21	1318.89
770.39	1339.37
770.57	1204.21
770.75	1314.80
770.93	1275.88
771.11	1228.78
771.29	1247.21
771.47	1277.93
771.65	1290.22
771.83	1273.84
772.01	1230.83
772.19	1220.59
772.37	1187.82
772.55	1222.64
772.73	1312.75
772.91	1183.73
773.09	1310.70
773.27	1284.08
773.44	1267.69
773.62	1255.40
773.80	1228.78
773.98	1183.73
774.16	1251.31
774.34	1300.46
774.52	1228.78
774.70	1251.31
774.88	1298.41
775.06	1370.09
775.24	1325.04
775.42	1300.46
775.60	1320.94
775.78	1279.98
775.95	1275.88
776.13	1224.69
776.31	1253.36
776.49	1329.13
776.67	1255.40
776.85	1284.08
777.03	1196.01
777.21	1265.64
777.39	1282.03
777.57	1253.36
777.75	1232.88
777.92	1204.21
778.10	1224.69
778.28	1220.59
778.46	1239.02
778.64	1204.21
778.82	1230.83
779.00	1322.99
779.18	1247.21
779.36	1296.36
779.53	1241.07
779.71	1241.07
779.89	1214.45
780.07	1249.26
780.25	1296.36
780.43	1284.08
780.61	1232.88
780.79	1288.17
780.96	1349.61
781.14	1269.74
781.32	1310.70
781.50	1183.73
781.68	1261.55
781.86	1247.21
782.04	1312.75
782.21	1269.74
782.39	1273.84
782.57	1271.79
782.75	1282.03
782.93	1273.84
783.11	1275.88
783.29	1282.03
783.46	1249.26
783.64	1251.31
783.82	1230.83
784.00	1236.97
784.18	1196.01
784.36	1261.55
784.54	1234.93
784.71	1265.64
784.89	1263.60
785.07	1267.69
785.25	1290.22
785.43	1314.80
785.60	1249.26
785.78	1267.69
785.96	1322.99
786.14	1302.51
786.32	1275.88
786.50	1271.79
786.67	1247.21
786.85	1234.93
787.03	1189.87
787.21	1251.31
787.39	1241.07
787.56	1282.03
787.74	1265.64
787.92	1204.21
788.10	1259.50
788.28	1304.56
788.45	1290.22
788.63	1277.93
788.81	1263.60
788.99	1236.97
789.17	1167.34
789.34	1253.36
789.52	1249.26
789.70	1228.78
789.88	1214.45
790.06	1236.97
790.23	1284.08
790.41	1220.59
790.59	1261.55
790.77	1210.35
790.95	1247.21
791.12	1273.84
791.30	1271.79
791.48	1210.35
791.66	1189.87
791.83	1255.40
792.01	1134.57
792.19	1290.22
792.37	1261.55
792.54	1269.74
792.72	1277.93
792.90	1236.97
793.08	1273.84
793.25	1277.93
793.43	1325.04
793.61	1308.65
793.79	1218.54
793.96	1230.83
794.14	1249.26
794.32	1226.73
794.50	1355.76
794.67	1257.45
794.85	1234.93
795.03	1230.83
795.21	1255.40
795.38	1392.62
795.56	1212.40
795.74	1261.55
795.92	1267.69
796.09	1259.50
796.27	1210.35
796.45	1269.74
796.62	1275.88
796.80	1249.26
796.98	1210.35
797.16	1329.13
797.33	1267.69
797.51	1261.55
797.69	1243.12
797.86	1294.32
798.04	1226.73
798.22	1236.97
798.40	1329.13
798.57	1261.55
798.75	1282.03
798.93	1288.17
799.10	1232.88
799.28	1265.64
799.46	1261.55
799.63	1239.02
799.81	1257.45
799.99	1216.49
800.17	1249.26
800.34	1265.64
800.52	1290.22
800.70	1282.03
800.87	1177.58
801.05	1275.88
801.23	1253.36
801.40	1294.32
801.58	1218.54
801.76	1261.55
801.93	1267.69
802.11	1259.50
802.29	1222.64
802.46	1253.36
802.64	1257.45
802.82	1302.51
802.99	1308.65
803.17	1228.78
803.35	1269.74
803.52	1273.84
803.70	1167.34
803.88	1173.49
804.05	1220.59
804.23	1224.69
804.41	1269.74
804.58	1310.70
804.76	1220.59
804.94	1279.98
805.11	1212.40
805.29	1327.08
805.46	1265.64
805.64	1208.30
805.82	1218.54
805.99	1208.30
806.17	1193.97
806.35	1265.64
806.52	1300.46
806.70	1243.12
806.87	1193.97
807.05	1284.08
807.23	1267.69
807.40	1181.68
807.58	1269.74
807.76	1214.45
807.93	1284.08
808.11	1284.08
808.28	1273.84
808.46	1275.88
808.64	1220.59
808.81	1339.37
808.99	1228.78
809.16	1267.69
809.34	1220.59
809.52	1310.70
809.69	1216.49
809.87	1335.28
810.04	1236.97
810.22	1208.30
810.40	1265.64
810.57	1267.69
810.75	1255.40
810.92	1288.17
811.10	1212.40
811.28	1185.77
811.45	1226.73
811.63	1255.40
811.80	1277.93
811.98	1269.74
812.15	1206.25
812.33	1226.73
812.51	1206.25
812.68	1257.45
812.86	1275.88
813.03	1263.60
813.21	1300.46
813.38	1300.46
813.56	1292.27
813.74	1232.88
813.91	1179.63
814.09	1253.36
814.26	1269.74
814.44	1335.28
814.61	1212.40
814.79	1228.78
814.96	1284.08
815.14	1300.46
815.31	1261.55
815.49	1314.80
815.67	1263.60
815.84	1251.31
816.02	1288.17
816.19	1263.60
816.37	1265.64
816.54	1284.08
816.72	1245.16
816.89	1245.16
817.07	1253.36
817.24	1267.69
817.42	1259.50
817.59	1241.07
817.77	1208.30
817.94	1288.17
818.12	1290.22
818.29	1222.64
818.47	1263.60
818.64	1224.69
818.82	1265.64
818.99	1210.35
819.17	1224.69
819.34	1220.59
819.52	1263.60
819.69	1298.41
819.87	1261.55
820.04	1277.93
820.22	1212.40
820.39	1269.74
820.57	1284.08
820.74	1245.16
820.92	1202.16
821.09	1228.78
821.27	1198.06
821.44	1269.74
821.62	1234.93
821.79	1216.49
821.97	1212.40
822.14	1239.02
822.32	1171.44
822.49	1232.88
822.67	1251.31
822.84	1312.75
823.02	1271.79
823.19	1153.01
823.37	1261.55
823.54	1236.97
823.72	1243.12
823.89	1220.59
824.06	1245.16
824.24	1300.46
824.41	1286.12
824.59	1212.40
824.76	1236.97
824.94	1312.75
825.11	1259.50
825.29	1243.12
825.46	1173.49
825.63	1335.28
825.81	1271.79
825.98	1282.03
826.16	1310.70
826.33	1210.35
826.51	1202.16
826.68	1255.40
826.86	1259.50
827.03	1198.06
827.20	1269.74
827.38	1236.97
827.55	1269.74
827.73	1224.69
827.90	1202.16
828.07	1234.93
828.25	1187.82
828.42	1277.93
828.60	1257.45
828.77	1292.27
828.95	1263.60
829.12	1253.36
829.29	1155.05
829.47	1169.39
829.64	1220.59
829.82	1212.40
829.99	1191.92
830.16	1247.21
830.34	1191.92
830.51	1263.60
830.69	1189.87
830.86	1204.21
831.03	1220.59
831.21	1230.83
831.38	1239.02
831.55	1191.92
831.73	1288.17
831.90	1257.45
832.08	1255.40
832.25	1249.26
832.42	1241.07
832.60	1241.07
832.77	1245.16
832.94	1253.36
833.12	1249.26
833.29	1267.69
833.47	1282.03
833.64	1255.40
833.81	1226.73
833.99	1212.40
834.16	1245.16
834.33	1239.02
834.51	1228.78
834.68	1212.40
834.85	1183.73
835.03	1204.21
835.20	1269.74
835.37	1259.50
835.55	1269.74
835.72	1271.79
835.90	1271.79
836.07	1245.16
836.24	1279.98
836.42	1300.46
836.59	1245.16
836.76	1245.16
836.94	1271.79
837.11	1243.12
837.28	1224.69
837.46	1288.17
837.63	1148.91
837.80	1269.74
837.97	1318.89
838.15	1144.81
838.32	1288.17
838.49	1179.63
838.67	1308.65
838.84	1316.84
839.01	1282.03
839.19	1259.50
839.36	1171.44
839.53	1204.21
839.71	1294.32
839.88	1269.74
840.05	1239.02
840.22	1265.64
840.40	1255.40
840.57	1196.01
840.74	1259.50
840.92	1249.26
841.09	1228.78
841.26	1236.97
841.43	1220.59
841.61	1253.36
841.78	1290.22
841.95	1286.12
842.13	1269.74
842.30	1187.82
842.47	1210.35
842.64	1198.06
842.82	1171.44
842.99	1232.88
843.16	1282.03
843.34	1232.88
843.51	1208.30
843.68	1198.06
843.85	1302.51
844.03	1206.25
844.20	1245.16
844.37	1232.88
844.54	1232.88
844.72	1236.97
844.89	1257.45
845.06	1230.83
845.23	1253.36
845.41	1249.26
845.58	1279.98
845.75	1284.08
845.92	1241.07
846.10	1222.64
846.27	1261.55
846.44	1206.25
846.61	1247.21
846.78	1265.64
846.96	1294.32
847.13	1206.25
847.30	1198.06
847.47	1206.25
847.65	1228.78
847.82	1282.03
847.99	1243.12
848.16	1290.22
848.33	1255.40
848.51	1271.79
848.68	1228.78
848.85	1343.47
849.02	1247.21
849.19	1226.73
849.37	1249.26
849.54	1212.40
849.71	1245.16
849.88	1251.31
850.05	1200.11
850.23	1316.84
850.40	1257.45
850.57	1288.17
850.74	1251.31
850.91	1269.74
851.09	1259.50
851.26	1241.07
851.43	1251.31
851.60	1257.45
851.77	1161.20
851.95	1279.98
852.12	1189.87
852.29	1259.50
852.46	1214.45
852.63	1271.79
852.80	1214.45
852.98	1310.70
853.15	1277.93
853.32	1255.40
853.49	1243.12
853.66	1241.07
853.83	1230.83
854.01	1230.83
854.18	1216.49
854.35	1228.78
854.52	1220.59
854.69	1265.64
854.86	1220.59
855.03	1251.31
855.21	1245.16
855.38	1298.41
855.55	1249.26
855.72	1243.12
855.89	1271.79
856.06	1329.13
856.23	1214.45
856.41	1239.02
856.58	1282.03
856.75	1214.45
856.92	1308.65
857.09	1234.93
857.26	1212.40
857.43	1267.69
857.60	1226.73
857.78	1267.69
857.95	1232.88
858.12	1273.84
858.29	1220.59
858.46	1245.16
858.63	1263.60
858.80	1261.55
858.97	1294.32
859.14	1304.56
859.32	1226.73
859.49	1255.40
859.66	1261.55
859.83	1169.39
860.00	1228.78
860.17	1259.50
860.34	1251.31
860.51	1226.73
860.68	1245.16
860.85	1142.77
861.02	1282.03
861.20	1204.21
861.37	1214.45
861.54	1249.26
861.71	1218.54
861.88	1232.88
862.05	1198.06
862.22	1226.73
862.39	1257.45
862.56	1247.21
862.73	1189.87
862.90	1185.77
863.07	1263.60
863.24	1257.45
863.41	1204.21
863.59	1239.02
863.76	1222.64
863.93	1173.49
864.10	1208.30
864.27	1253.36
864.44	1239.02
864.61	1255.40
864.78	1259.50
864.95	1259.50
865.12	1261.55
865.29	1335.28
865.46	1206.25
865.63	1206.25
865.80	1247.21
865.97	1181.68
866.14	1226.73
866.31	1232.88
866.48	1259.50
866.65	1165.29
866.82	1273.84
866.99	1251.31
867.16	1228.78
867.33	1259.50
867.50	1226.73
867.67	1312.75
867.84	1204.21
868.01	1247.21
868.18	1282.03
868.35	1218.54
868.52	1300.46
868.69	1273.84
868.86	1159.15
869.03	1155.05
869.20	1239.02
869.37	1202.16
869.54	1263.60
869.71	1220.59
869.88	1247.21
870.05	1279.98
870.22	1243.12
870.39	1234.93
870.56	1253.36
870.73	1236.97
870.90	1175.53
871.07	1269.74
871.24	1251.31
871.41	1357.80
871.58	1169.39
871.75	1243.12
871.92	1234.93
872.09	1265.64
872.26	1247.21
872.43	1230.83
872.60	1171.44
872.77	1191.92
872.94	1191.92
873.11	1208.30
873.28	1267.69
873.45	1200.11
873.62	1253.36
873.79	1206.25
873.96	1271.79
874.13	1267.69
874.30	1222.64
874.47	1269.74
874.64	1204.21
874.80	1232.88
874.97	1212.40
875.14	1177.58
875.31	1253.36
875.48	1232.88
875.65	1253.36
875.82	1257.45
875.99	1208.30
876.16	1169.39
876.33	1318.89
876.50	1228.78
876.67	1292.27
876.84	1202.16
877.01	1304.56
877.17	1234.93
877.34	1228.78
877.51	1236.97
877.68	1183.73
877.85	1265.64
878.02	1239.02
878.19	1316.84
878.36	1181.68
878.53	1241.07
878.70	1282.03
878.87	1216.49
879.03	1222.64
879.20	1296.36
879.37	1208.30
879.54	1261.55
879.71	1247.21
879.88	1284.08
880.05	1267.69
880.22	1255.40
880.39	1181.68
880.55	1206.25
880.72	1251.31
880.89	1282.03
881.06	1208.30
881.23	1216.49
881.40	1232.88
881.57	1177.58
881.74	1212.40
881.90	1251.31
882.07	1218.54
882.24	1257.45
882.41	1269.74
882.58	1273.84
882.75	1169.39
882.92	1200.11
883.08	1183.73
883.25	1267.69
883.42	1271.79
883.59	1204.21
883.76	1208.30
883.93	1259.50
884.09	1349.61
884.26	1198.06
884.43	1208.30
884.60	1234.93
884.77	1247.21
884.94	1261.55
885.10	1255.40
885.27	1218.54
885.44	1288.17
885.61	1226.73
885.78	1251.31
885.95	1204.21
886.11	1204.21
886.28	1277.93
886.45	1259.50
886.62	1210.35
886.79	1265.64
886.96	1183.73
887.12	1234.93
887.29	1296.36
887.46	1222.64
887.63	1241.07
887.80	1298.41
887.96	1232.88
888.13	1253.36
888.30	1245.16
888.47	1267.69
888.64	1165.29
888.80	1232.88
888.97	1198.06
889.14	1144.81
889.31	1210.35
889.47	1249.26
889.64	1181.68
889.81	1189.87
889.98	1198.06
890.15	1249.26
890.31	1239.02
890.48	1239.02
890.65	1239.02
890.82	1239.02
890.98	1239.02
891.15	1239.02
>>>>>End Processed Spectral Data<<<<<
