SpectraSuite Data File
++++++++++++++++++++++++++++++++++++
Date: Fri Jan 24 16:11:04 MST 2020
User: Molly
Dark Spectrum Present: Yes
Reference Spectrum Present: Yes
Number of Sampled Component Spectra: 1
Spectrometers: USB4E03280
Integration Time (usec): 32000 (USB4E03280)
Spectra Averaged: 1 (USB4E03280)
Boxcar Smoothing: 0 (USB4E03280)
Correct for Electrical Dark: No (USB4E03280)
Strobe/Lamp Enabled: Yes (USB4E03280)
Correct for Detector Non-linearity: No (USB4E03280)
Correct for Stray Light: No (USB4E03280)
Number of Pixels in Processed Spectrum: 3648
>>>>>Begin Processed Spectral Data<<<<<
177.66	1073.14
177.88	1073.14
178.10	1073.14
178.32	1134.57
178.54	1052.66
178.76	1171.44
178.98	1142.77
179.19	1083.38
179.41	1148.91
179.63	1159.15
179.85	1150.96
180.07	1091.57
180.29	1155.05
180.51	1062.90
180.72	1132.53
180.94	1165.29
181.16	1073.14
181.38	1120.24
181.60	1103.86
181.82	1107.95
182.04	1196.01
182.25	1114.10
182.47	1138.67
182.69	1185.77
182.91	1126.38
183.13	1101.81
183.35	1134.57
183.56	1134.57
183.78	1132.53
184.00	1124.33
184.22	1136.62
184.44	1126.38
184.66	1112.05
184.87	1144.81
185.09	1142.77
185.31	1159.15
185.53	1116.14
185.75	1105.90
185.97	1155.05
186.18	1122.29
186.40	1153.01
186.62	1150.96
186.84	1167.34
187.06	1118.19
187.28	1099.76
187.49	1114.10
187.71	1218.54
187.93	1169.39
188.15	1138.67
188.37	1101.81
188.59	1101.81
188.80	1132.53
189.02	1148.91
189.24	1159.15
189.46	1134.57
189.68	1085.42
189.89	1116.14
190.11	1134.57
190.33	1153.01
190.55	1138.67
190.77	1116.14
190.98	1196.01
191.20	1103.86
191.42	1165.29
191.64	1130.48
191.86	1122.29
192.07	1124.33
192.29	1101.81
192.51	1097.71
192.73	1169.39
192.95	1095.66
193.16	1122.29
193.38	1116.14
193.60	1114.10
193.82	1097.71
194.04	1089.52
194.25	1132.53
194.47	1122.29
194.69	1124.33
194.91	1150.96
195.13	1101.81
195.34	1073.14
195.56	1107.95
195.78	1130.48
196.00	1144.81
196.22	1110.00
196.43	1110.00
196.65	1191.92
196.87	1136.62
197.09	1165.29
197.30	1085.42
197.52	1122.29
197.74	1097.71
197.96	1189.87
198.18	1155.05
198.39	1083.38
198.61	1089.52
198.83	1140.72
199.05	1171.44
199.26	1144.81
199.48	1169.39
199.70	1122.29
199.92	1153.01
200.13	1193.97
200.35	1101.81
200.57	1177.58
200.79	1118.19
201.00	1064.94
201.22	1167.34
201.44	1128.43
201.66	1179.63
201.88	1103.86
202.09	1138.67
202.31	1157.10
202.53	1179.63
202.75	1071.09
202.96	1081.33
203.18	1159.15
203.40	1175.53
203.62	1155.05
203.83	1150.96
204.05	1128.43
204.27	1142.77
204.49	1196.01
204.70	1073.14
204.92	1132.53
205.14	1153.01
205.35	1173.49
205.57	1191.92
205.79	1161.20
206.01	1153.01
206.22	1159.15
206.44	1114.10
206.66	1124.33
206.88	1169.39
207.09	1112.05
207.31	1177.58
207.53	1134.57
207.75	1091.57
207.96	1159.15
208.18	1056.75
208.40	1171.44
208.61	1150.96
208.83	1150.96
209.05	1116.14
209.27	1075.18
209.48	1163.25
209.70	1142.77
209.92	1167.34
210.14	1124.33
210.35	1146.86
210.57	1134.57
210.79	1114.10
211.00	1116.14
211.22	1083.38
211.44	1075.18
211.66	1169.39
211.87	1097.71
212.09	1124.33
212.31	1216.49
212.52	1130.48
212.74	1189.87
212.96	1163.25
213.17	1181.68
213.39	1148.91
213.61	1187.82
213.83	1122.29
214.04	1136.62
214.26	1161.20
214.48	1161.20
214.69	1103.86
214.91	1142.77
215.13	1214.45
215.34	1126.38
215.56	1144.81
215.78	1159.15
216.00	1191.92
216.21	1136.62
216.43	1116.14
216.65	1124.33
216.86	1116.14
217.08	1161.20
217.30	1083.38
217.51	1142.77
217.73	1224.69
217.95	1099.76
218.16	1202.16
218.38	1177.58
218.60	1153.01
218.81	1110.00
219.03	1165.29
219.25	1146.86
219.46	1126.38
219.68	1069.04
219.90	1140.72
220.11	1183.73
220.33	1161.20
220.55	1181.68
220.76	1159.15
220.98	1165.29
221.20	1126.38
221.41	1150.96
221.63	1142.77
221.85	1142.77
222.06	1083.38
222.28	1157.10
222.50	1148.91
222.71	1132.53
222.93	1148.91
223.15	1183.73
223.36	1167.34
223.58	1118.19
223.80	1116.14
224.01	1114.10
224.23	1251.31
224.45	1101.81
224.66	1161.20
224.88	1091.57
225.10	1079.28
225.31	1099.76
225.53	1224.69
225.75	1159.15
225.96	1105.90
226.18	1153.01
226.39	1138.67
226.61	1128.43
226.83	1101.81
227.04	1144.81
227.26	1167.34
227.48	1120.24
227.69	1157.10
227.91	1077.23
228.13	1130.48
228.34	1120.24
228.56	1173.49
228.77	1087.47
228.99	1138.67
229.21	1171.44
229.42	1140.72
229.64	1122.29
229.86	1134.57
230.07	1071.09
230.29	1167.34
230.50	1161.20
230.72	1130.48
230.94	1183.73
231.15	1150.96
231.37	1085.42
231.58	1155.05
231.80	1073.14
232.02	1110.00
232.23	1216.49
232.45	1167.34
232.67	1112.05
232.88	1114.10
233.10	1167.34
233.31	1222.64
233.53	1112.05
233.75	1112.05
233.96	1159.15
234.18	1163.25
234.39	1085.42
234.61	1216.49
234.83	1089.52
235.04	1136.62
235.26	1105.90
235.47	1153.01
235.69	1144.81
235.91	1081.33
236.12	1118.19
236.34	1150.96
236.55	1122.29
236.77	1136.62
236.99	1163.25
237.20	1110.00
237.42	1163.25
237.63	1118.19
237.85	1157.10
238.06	1193.97
238.28	1091.57
238.50	1183.73
238.71	1155.05
238.93	1253.36
239.14	1126.38
239.36	1183.73
239.58	1132.53
239.79	1118.19
240.01	1157.10
240.22	1171.44
240.44	1148.91
240.65	1153.01
240.87	1193.97
241.09	1159.15
241.30	1089.52
241.52	1114.10
241.73	1122.29
241.95	1099.76
242.16	1171.44
242.38	1134.57
242.59	1073.14
242.81	1155.05
243.03	1146.86
243.24	1204.21
243.46	1114.10
243.67	1153.01
243.89	1169.39
244.10	1099.76
244.32	1157.10
244.53	1191.92
244.75	1138.67
244.97	1175.53
245.18	1196.01
245.40	1153.01
245.61	1234.93
245.83	1140.72
246.04	1148.91
246.26	1118.19
246.47	1134.57
246.69	1077.23
246.90	1171.44
247.12	1155.05
247.34	1146.86
247.55	1171.44
247.77	1179.63
247.98	1173.49
248.20	1128.43
248.41	1124.33
248.63	1132.53
248.84	1161.20
249.06	1130.48
249.27	1126.38
249.49	1173.49
249.70	1157.10
249.92	1093.62
250.13	1191.92
250.35	1150.96
250.56	1157.10
250.78	1146.86
251.00	1200.11
251.21	1097.71
251.43	1153.01
251.64	1099.76
251.86	1101.81
252.07	1116.14
252.29	1134.57
252.50	1071.09
252.72	1187.82
252.93	1097.71
253.15	1155.05
253.36	1218.54
253.58	1091.57
253.79	1142.77
254.01	1148.91
254.22	1140.72
254.44	1185.77
254.65	1126.38
254.87	1159.15
255.08	1132.53
255.30	1142.77
255.51	1116.14
255.73	1144.81
255.94	1122.29
256.16	1144.81
256.37	1116.14
256.59	1177.58
256.80	1103.86
257.02	1066.99
257.23	1177.58
257.45	1161.20
257.66	1181.68
257.88	1165.29
258.09	1230.83
258.31	1101.81
258.52	1179.63
258.74	1165.29
258.95	1159.15
259.16	1161.20
259.38	1185.77
259.59	1153.01
259.81	1161.20
260.02	1146.86
260.24	1120.24
260.45	1167.34
260.67	1142.77
260.88	1277.93
261.10	1056.75
261.31	1132.53
261.53	1095.66
261.74	1155.05
261.96	1167.34
262.17	1157.10
262.39	1157.10
262.60	1144.81
262.81	1126.38
263.03	1179.63
263.24	1138.67
263.46	1163.25
263.67	1155.05
263.89	1153.01
264.10	1124.33
264.32	1159.15
264.53	1132.53
264.75	1218.54
264.96	1169.39
265.17	1148.91
265.39	1126.38
265.60	1116.14
265.82	1118.19
266.03	1107.95
266.25	1196.01
266.46	1112.05
266.68	1110.00
266.89	1171.44
267.10	1114.10
267.32	1181.68
267.53	1146.86
267.75	1212.40
267.96	1228.78
268.18	1126.38
268.39	1138.67
268.61	1171.44
268.82	1089.52
269.03	1191.92
269.25	1153.01
269.46	1148.91
269.68	1155.05
269.89	1085.42
270.11	1126.38
270.32	1050.61
270.53	1189.87
270.75	1208.30
270.96	1155.05
271.18	1085.42
271.39	1171.44
271.60	1110.00
271.82	1124.33
272.03	1089.52
272.25	1091.57
272.46	1150.96
272.68	1093.62
272.89	1155.05
273.10	1114.10
273.32	1130.48
273.53	1163.25
273.75	1110.00
273.96	1153.01
274.17	1114.10
274.39	1159.15
274.60	1142.77
274.82	1150.96
275.03	1163.25
275.24	1140.72
275.46	1159.15
275.67	1056.75
275.89	1159.15
276.10	1185.77
276.31	1148.91
276.53	1093.62
276.74	1105.90
276.96	1114.10
277.17	1163.25
277.38	1073.14
277.60	1167.34
277.81	1124.33
278.02	1202.16
278.24	1212.40
278.45	1142.77
278.67	1128.43
278.88	1251.31
279.09	1112.05
279.31	1163.25
279.52	1021.94
279.73	1093.62
279.95	1099.76
280.16	1089.52
280.38	1163.25
280.59	1118.19
280.80	1150.96
281.02	1167.34
281.23	1148.91
281.44	1157.10
281.66	1110.00
281.87	1140.72
282.09	1138.67
282.30	1153.01
282.51	1157.10
282.73	1206.25
282.94	1122.29
283.15	1202.16
283.37	1138.67
283.58	1187.82
283.79	1112.05
284.01	1161.20
284.22	1204.21
284.43	1153.01
284.65	1140.72
284.86	1138.67
285.07	1177.58
285.29	1267.69
285.50	1181.68
285.72	1185.77
285.93	1191.92
286.14	1159.15
286.36	1177.58
286.57	1163.25
286.78	1200.11
287.00	1157.10
287.21	1222.64
287.42	1155.05
287.64	1187.82
287.85	1236.97
288.06	1230.83
288.28	1241.07
288.49	1130.48
288.70	1196.01
288.92	1257.45
289.13	1224.69
289.34	1191.92
289.56	1253.36
289.77	1214.45
289.98	1208.30
290.19	1196.01
290.41	1169.39
290.62	1138.67
290.83	1247.21
291.05	1247.21
291.26	1224.69
291.47	1282.03
291.69	1187.82
291.90	1239.02
292.11	1259.50
292.33	1302.51
292.54	1320.94
292.75	1255.40
292.97	1286.12
293.18	1322.99
293.39	1292.27
293.60	1236.97
293.82	1257.45
294.03	1216.49
294.24	1466.35
294.46	1314.80
294.67	1390.57
294.88	1275.88
295.10	1419.24
295.31	1417.19
295.52	1372.14
295.73	1388.52
295.95	1402.86
296.16	1482.73
296.37	1458.15
296.59	1445.87
296.80	1488.87
297.01	1427.43
297.22	1550.31
297.44	1542.12
297.65	1503.21
297.86	1462.25
298.08	1566.70
298.29	1570.79
298.50	1578.98
298.71	1585.13
298.93	1609.70
299.14	1658.85
299.35	1685.48
299.56	1636.33
299.78	1673.19
299.99	1599.46
300.20	1654.76
300.42	1691.62
300.63	1638.38
300.84	1726.44
301.05	1675.24
301.27	1769.44
301.48	1728.49
301.69	1798.12
301.90	1769.44
302.12	1689.57
302.33	1796.07
302.54	1708.01
302.75	1800.16
302.97	1724.39
303.18	1794.02
303.39	1849.32
303.60	1742.82
303.82	1728.49
304.03	1861.60
304.24	1763.30
304.45	1814.50
304.67	1847.27
304.88	1855.46
305.09	1898.47
305.30	1894.37
305.52	1882.08
305.73	1955.81
305.94	1898.47
306.15	1865.70
306.37	2015.20
306.58	1927.14
306.79	1900.52
307.00	1931.23
307.22	1951.71
307.43	1927.14
307.64	1886.18
307.85	1959.91
308.06	1906.66
308.28	1996.77
308.49	1996.77
308.70	2004.96
308.91	1972.19
309.13	2074.59
309.34	2068.45
309.55	1982.43
309.76	1988.58
309.97	1978.34
310.19	2002.91
310.40	2021.35
310.61	2025.44
310.82	2035.68
311.04	2058.21
311.25	2011.11
311.46	2011.11
311.67	2086.88
311.88	2107.36
312.10	2107.36
312.31	2097.12
312.52	2138.08
312.73	2099.17
312.94	2076.64
313.16	2203.61
313.37	2070.50
313.58	2117.60
313.79	2197.47
314.00	2152.42
314.22	2185.18
314.43	2168.80
314.64	2238.43
314.85	2209.76
315.06	2197.47
315.27	2144.22
315.49	2199.52
315.70	2150.37
315.91	2285.53
316.12	2211.81
316.33	2197.47
316.55	2353.12
316.76	2238.43
316.97	2232.29
317.18	2375.64
317.39	2351.07
317.60	2326.49
317.82	2283.49
318.03	2277.34
318.24	2248.67
318.45	2363.36
318.66	2312.16
318.88	2340.83
319.09	2281.44
319.30	2349.02
319.51	2449.37
319.72	2377.69
319.93	2396.12
320.15	2432.99
320.36	2420.70
320.57	2490.33
320.78	2490.33
320.99	2435.03
321.20	2349.02
321.41	2412.51
321.63	2373.60
321.84	2516.95
322.05	2461.66
322.26	2555.86
322.47	2420.70
322.68	2437.08
322.90	2455.51
323.11	2392.03
323.32	2508.76
323.53	2424.80
323.74	2521.05
323.95	2521.05
324.16	2506.71
324.38	2400.22
324.59	2500.57
324.80	2508.76
325.01	2516.95
325.22	2590.68
325.43	2545.63
325.64	2545.63
325.85	2500.57
326.07	2441.18
326.28	2551.77
326.49	2480.09
326.70	2449.37
326.91	2420.70
327.12	2437.08
327.33	2537.43
327.54	2488.28
327.76	2437.08
327.97	2506.71
328.18	2484.19
328.39	2588.63
328.60	2469.85
328.81	2523.10
329.02	2426.84
329.23	2605.02
329.45	2564.06
329.66	2562.01
329.87	2549.72
330.08	2486.23
330.29	2613.21
330.50	2619.35
330.71	2605.02
330.92	2664.41
331.13	2656.22
331.34	2664.41
331.56	2731.99
331.77	2719.70
331.98	2727.89
332.19	2779.09
332.40	2770.90
332.61	2854.87
332.82	2762.71
333.03	2738.13
333.24	2836.44
333.45	2705.37
333.67	2596.82
333.88	2680.79
334.09	2662.36
334.30	2643.93
334.51	2596.82
334.72	2668.50
334.93	2670.55
335.14	2678.74
335.35	2635.74
335.56	2658.26
335.77	2705.37
335.98	2740.18
336.19	2682.84
336.41	2678.74
336.62	2662.36
336.83	2648.02
337.04	2641.88
337.25	2621.40
337.46	2680.79
337.67	2688.98
337.88	2746.33
338.09	2670.55
338.30	2744.28
338.51	2787.29
338.72	2609.11
338.93	2633.69
339.14	2719.70
339.35	2709.46
339.57	2697.17
339.78	2779.09
339.99	2752.47
340.20	2709.46
340.41	2693.08
340.62	2889.68
340.83	2795.48
341.04	2738.13
341.25	2719.70
341.46	2756.57
341.67	2734.04
341.88	2662.36
342.09	2770.90
342.30	2619.35
342.51	2848.72
342.72	2777.05
342.93	2754.52
343.14	2858.96
343.35	2709.46
343.56	2871.25
343.77	2731.99
343.98	2729.94
344.19	2834.39
344.41	2803.67
344.62	2734.04
344.83	2856.92
345.04	2746.33
345.25	2729.94
345.46	2762.71
345.67	2725.85
345.88	2717.65
346.09	2748.37
346.30	2879.44
346.51	2658.26
346.72	2799.57
346.93	2789.33
347.14	2883.54
347.35	2736.09
347.56	2684.89
347.77	2785.24
347.98	2744.28
348.19	2750.42
348.40	2850.77
348.61	2756.57
348.82	2748.37
349.03	2750.42
349.24	2775.00
349.45	2848.72
349.66	2848.72
349.87	2764.76
350.08	2729.94
350.29	2908.12
350.50	2641.88
350.71	2693.08
350.92	2807.77
351.13	2850.77
351.34	2836.44
351.55	2742.23
351.76	2777.05
351.97	2832.34
352.18	2797.53
352.39	2789.33
352.60	2793.43
352.81	2777.05
353.02	2809.81
353.23	2791.38
353.44	2715.61
353.65	2758.61
353.86	2815.96
354.07	2746.33
354.28	2736.09
354.49	2799.57
354.70	2752.47
354.90	2785.24
355.11	2695.13
355.32	2682.84
355.53	2736.09
355.74	2693.08
355.95	2699.22
356.16	2768.85
356.37	2854.87
356.58	2846.68
356.79	2775.00
357.00	2797.53
357.21	2793.43
357.42	2828.24
357.63	2764.76
357.84	2799.57
358.05	2824.15
358.26	2826.20
358.47	2869.20
358.68	2799.57
358.89	2815.96
359.10	2809.81
359.31	2830.29
359.52	2791.38
359.73	2908.12
359.93	2883.54
360.14	2838.48
360.35	2738.13
360.56	2830.29
360.77	2852.82
360.98	2803.67
361.19	2863.06
361.40	2871.25
361.61	2811.86
361.82	2838.48
362.03	2940.88
362.24	2846.68
362.45	2957.27
362.66	2926.55
362.87	2887.64
363.07	3000.27
363.28	3067.86
363.49	2914.26
363.70	3012.56
363.91	2832.34
364.12	3086.29
364.33	3014.61
364.54	3041.23
364.75	2977.75
364.96	2994.13
365.17	2912.21
365.38	3037.14
365.58	3037.14
365.79	3076.05
366.00	3026.90
366.21	2977.75
366.42	3008.47
366.63	2979.79
366.84	3024.85
367.05	2992.08
367.26	3114.96
367.47	3063.76
367.67	3084.24
367.88	3004.37
368.09	3092.43
368.30	3057.62
368.51	2979.79
368.72	3135.44
368.93	2928.60
369.14	3041.23
369.35	3018.71
369.56	3037.14
369.76	3008.47
369.97	3088.34
370.18	2891.73
370.39	3059.67
370.60	3063.76
370.81	3112.91
371.02	3037.14
371.23	3184.59
371.43	3041.23
371.64	3133.39
371.85	3080.14
372.06	2949.08
372.27	3112.91
372.48	3114.96
372.69	3219.41
372.90	3135.44
373.10	2987.99
373.31	3106.77
373.52	3174.35
373.73	3104.72
373.94	3149.78
374.15	3135.44
374.36	3153.87
374.56	3262.41
374.77	3096.53
374.98	3168.21
375.19	3117.01
375.40	3213.26
375.61	3084.24
375.82	3293.13
376.02	3166.16
376.23	3149.78
376.44	3252.17
376.65	3186.64
376.86	3049.43
377.07	3184.59
377.28	3229.65
377.48	3379.15
377.69	3153.87
377.90	3166.16
378.11	3311.57
378.32	3301.33
378.53	3217.36
378.73	3160.02
378.94	3149.78
379.15	3231.69
379.36	3260.37
379.57	3239.89
379.78	3157.97
379.98	3074.00
380.19	3178.45
380.40	3260.37
380.61	3047.38
380.82	3211.22
381.03	3145.68
381.23	3129.30
381.44	3217.36
381.65	3143.63
381.86	3278.80
382.07	3121.10
382.27	3192.78
382.48	3299.28
382.69	3170.26
382.90	3258.32
383.11	3221.45
383.32	3291.09
383.52	3176.40
383.73	3112.91
383.94	3284.94
384.15	3149.78
384.36	3184.59
384.56	3219.41
384.77	3092.43
384.98	3299.28
385.19	3280.85
385.40	3264.46
385.60	3160.02
385.81	3153.87
386.02	3227.60
386.23	3274.70
386.43	3243.98
386.64	3274.70
386.85	3385.29
387.06	3403.72
387.27	3297.23
387.47	3315.66
387.68	3192.78
387.89	3280.85
388.10	3186.64
388.31	3309.52
388.51	3256.27
388.72	3205.07
388.93	3149.78
389.14	3323.85
389.34	3250.13
389.55	3237.84
389.76	3114.96
389.97	3266.51
390.18	3284.94
390.38	3325.90
390.59	3239.89
390.80	3301.33
391.01	3233.74
391.21	3315.66
391.42	3428.30
391.63	3366.86
391.84	3383.24
392.04	3510.22
392.25	3565.51
392.46	3330.00
392.67	3477.45
392.87	3469.26
393.08	3317.71
393.29	3401.68
393.50	3379.15
393.70	3385.29
393.91	3256.27
394.12	3452.88
394.33	3407.82
394.53	3198.93
394.74	3186.64
394.95	3352.52
395.16	3317.71
395.36	3270.61
395.57	3397.58
395.78	3145.68
395.99	3258.32
396.19	3405.77
396.40	3305.42
396.61	3403.72
396.81	3248.08
397.02	3286.99
397.23	3366.86
397.44	3547.08
397.64	3487.69
397.85	3604.42
398.06	3413.96
398.27	3434.44
398.47	3567.56
398.68	3524.55
398.89	3520.46
399.09	3450.83
399.30	3297.23
399.51	3446.73
399.72	3469.26
399.92	3381.20
400.13	3362.76
400.34	3307.47
400.54	3352.52
400.75	3340.24
400.96	3309.52
401.17	3399.63
401.37	3336.14
401.58	3428.30
401.79	3389.39
401.99	3524.55
402.20	3479.50
402.41	3336.14
402.61	3143.63
402.82	3278.80
403.03	3440.59
403.24	3231.69
403.44	3399.63
403.65	3330.00
403.86	3471.31
404.06	3532.75
404.27	3438.54
404.48	3387.34
404.68	3502.03
404.89	3456.97
405.10	3352.52
405.30	3399.63
405.51	3397.58
405.72	3385.29
405.92	3278.80
406.13	3405.77
406.34	3358.67
406.54	3323.85
406.75	3360.72
406.96	3301.33
407.16	3475.40
407.37	3403.72
407.58	3479.50
407.78	3450.83
407.99	3450.83
408.20	3497.93
408.40	3325.90
408.61	3413.96
408.82	3319.76
409.02	3348.43
409.23	3473.36
409.44	3444.68
409.64	3270.61
409.85	3319.76
410.06	3377.10
410.26	3456.97
410.47	3477.45
410.68	3373.00
410.88	3616.71
411.09	3452.88
411.30	3479.50
411.50	3514.31
411.71	3432.40
411.91	3463.12
412.12	3454.92
412.33	3499.98
412.53	3393.48
412.74	3432.40
412.95	3426.25
413.15	3452.88
413.36	3393.48
413.57	3487.69
413.77	3330.00
413.98	3440.59
414.18	3413.96
414.39	3366.86
414.60	3276.75
414.80	3375.05
415.01	3309.52
415.22	3405.77
415.42	3338.19
415.63	3444.68
415.83	3401.68
416.04	3307.47
416.25	3272.65
416.45	3360.72
416.66	3493.83
416.86	3438.54
417.07	3438.54
417.28	3518.41
417.48	3418.06
417.69	3526.60
417.89	3532.75
418.10	3362.76
418.31	3346.38
418.51	3420.11
418.72	3612.62
418.92	3354.57
419.13	3362.76
419.34	3430.35
419.54	3440.59
419.75	3450.83
419.95	3540.94
420.16	3428.30
420.37	3547.08
420.57	3624.90
420.78	3459.02
420.98	3631.05
421.19	3643.34
421.40	3557.32
421.60	3635.14
421.81	3647.43
422.01	3493.83
422.22	3545.03
422.42	3514.31
422.63	3502.03
422.84	3422.16
423.04	3409.87
423.25	3401.68
423.45	3399.63
423.66	3502.03
423.86	3471.31
424.07	3475.40
424.28	3512.27
424.48	3545.03
424.69	3489.74
424.89	3549.13
425.10	3524.55
425.30	3499.98
425.51	3327.95
425.72	3411.92
425.92	3389.39
426.13	3393.48
426.33	3481.55
426.54	3428.30
426.74	3491.79
426.95	3485.64
427.15	3461.07
427.36	3520.46
427.56	3465.16
427.77	3459.02
427.98	3588.04
428.18	3459.02
428.39	3563.47
428.59	3649.48
428.80	3608.52
429.00	3669.96
429.21	3753.93
429.41	3669.96
429.62	3676.10
429.82	3739.59
430.03	3655.62
430.23	3715.02
430.44	3770.31
430.65	3694.54
430.85	3907.52
431.06	3594.19
431.26	3526.60
431.47	3389.39
431.67	3446.73
431.88	3571.66
432.08	3495.88
432.29	3463.12
432.49	3485.64
432.70	3493.83
432.90	3373.00
433.11	3475.40
433.31	3559.37
433.52	3512.27
433.72	3454.92
433.93	3456.97
434.13	3444.68
434.34	3585.99
434.54	3528.65
434.75	3725.26
434.95	3753.93
435.16	3620.81
435.36	3612.62
435.57	3573.71
435.77	3766.21
435.98	3514.31
436.18	3577.80
436.39	3565.51
436.59	3432.40
436.80	3542.99
437.00	3542.99
437.21	3618.76
437.41	3649.48
437.62	3700.68
437.82	3575.75
438.03	3481.55
438.23	3692.49
438.44	3465.16
438.64	3373.00
438.85	3385.29
439.05	3530.70
439.25	3569.61
439.46	3252.17
439.66	3391.44
439.87	3473.36
440.07	3514.31
440.28	3444.68
440.48	3450.83
440.69	3454.92
440.89	3536.84
441.10	3479.50
441.30	3307.47
441.51	3483.59
441.71	3592.14
441.92	3344.33
442.12	3383.24
442.32	3573.71
442.53	3502.03
442.73	3516.36
442.94	3489.74
443.14	3553.23
443.35	3420.11
443.55	3596.23
443.76	3594.19
443.96	3450.83
444.16	3397.58
444.37	3579.85
444.57	3469.26
444.78	3475.40
444.98	3547.08
445.19	3502.03
445.39	3606.47
445.60	3512.27
445.80	3545.03
446.00	3530.70
446.21	3422.16
446.41	3663.82
446.62	3411.92
446.82	3551.18
447.03	3573.71
447.23	3577.80
447.43	3383.24
447.64	3424.20
447.84	3354.57
448.05	3504.07
448.25	3465.16
448.45	3540.94
448.66	3459.02
448.86	3485.64
449.07	3491.79
449.27	3545.03
449.48	3471.31
449.68	3473.36
449.88	3510.22
450.09	3456.97
450.29	3596.23
450.50	3407.82
450.70	3469.26
450.90	3409.87
451.11	3463.12
451.31	3536.84
451.52	3350.48
451.72	3352.52
451.92	3461.07
452.13	3401.68
452.33	3485.64
452.54	3303.37
452.74	3352.52
452.94	3258.32
453.15	3422.16
453.35	3325.90
453.55	3262.41
453.76	3305.42
453.96	3319.76
454.17	3256.27
454.37	3454.92
454.57	3334.09
454.78	3502.03
454.98	3366.86
455.19	3237.84
455.39	3456.97
455.59	3362.76
455.80	3233.74
456.00	3346.38
456.20	3411.92
456.41	3485.64
456.61	3325.90
456.81	3454.92
457.02	3274.70
457.22	3467.21
457.43	3289.04
457.63	3352.52
457.83	3358.67
458.04	3229.65
458.24	3284.94
458.44	3223.50
458.65	3170.26
458.85	3348.43
459.05	3309.52
459.26	3186.64
459.46	3289.04
459.66	3428.30
459.87	3282.89
460.07	3454.92
460.27	3504.07
460.48	3418.06
460.68	3426.25
460.88	3336.14
461.09	3268.56
461.29	3284.94
461.49	3205.07
461.70	3225.55
461.90	3096.53
462.10	3112.91
462.31	3346.38
462.51	3160.02
462.71	3180.50
462.92	3145.68
463.12	3223.50
463.32	3301.33
463.53	3188.69
463.73	3358.67
463.93	3418.06
464.14	3340.24
464.34	3491.79
464.54	3575.75
464.75	3489.74
464.95	3467.21
465.15	3483.59
465.36	3438.54
465.56	3485.64
465.76	3321.81
465.96	3387.34
466.17	3164.11
466.37	3297.23
466.57	3377.10
466.78	3250.13
466.98	3344.33
467.18	3239.89
467.39	3231.69
467.59	3289.04
467.79	3254.22
467.99	3215.31
468.20	3334.09
468.40	3301.33
468.60	3110.86
468.81	3311.57
469.01	3303.37
469.21	3264.46
469.41	3330.00
469.62	3252.17
469.82	3264.46
470.02	3262.41
470.23	3291.09
470.43	3303.37
470.63	3286.99
470.83	3399.63
471.04	3190.74
471.24	3362.76
471.44	3370.96
471.65	3317.71
471.85	3395.53
472.05	3469.26
472.25	3469.26
472.46	3502.03
472.66	3440.59
472.86	3473.36
473.06	3530.70
473.27	3446.73
473.47	3534.79
473.67	3626.95
473.87	3499.98
474.08	3600.33
474.28	3641.29
474.48	3737.54
474.68	3694.54
474.89	3631.05
475.09	3669.96
475.29	3614.66
475.49	3596.23
475.70	3616.71
475.90	3704.78
476.10	3680.20
476.30	3604.42
476.51	3749.83
476.71	3614.66
476.91	3766.21
477.11	3717.06
477.32	3702.73
477.52	3864.52
477.72	3710.92
477.92	3815.37
478.12	3893.19
478.33	3839.94
478.53	3807.17
478.73	3846.09
478.93	3878.85
479.14	3897.28
479.34	4057.03
479.54	3786.69
479.74	3882.95
479.94	3854.28
480.15	3993.54
480.35	4085.70
480.55	4130.75
480.75	4124.61
480.96	4083.65
481.16	4134.85
481.36	4112.32
481.56	4059.07
481.76	4151.23
481.97	4046.79
482.17	4161.47
482.37	4046.79
482.57	4143.04
482.77	4136.90
482.98	4251.58
483.18	4308.93
483.38	4261.82
483.58	4366.27
483.78	4366.27
483.98	4501.44
484.19	4374.46
484.39	4579.26
484.59	4528.06
484.79	4714.42
484.99	4784.06
485.20	4777.91
485.40	4566.97
485.60	4573.11
485.80	4569.02
486.00	4716.47
486.20	4786.10
486.41	4757.43
486.61	4579.26
486.81	4550.59
487.01	4618.17
487.21	4364.22
487.42	4448.19
487.62	4366.27
487.82	4399.04
488.02	4362.17
488.22	4384.70
488.42	4423.61
488.62	4308.93
488.83	4282.30
489.03	4421.56
489.23	4261.82
489.43	4341.69
489.63	4237.25
489.83	4229.06
490.04	4179.90
490.24	4304.83
490.44	4284.35
490.64	4202.43
490.84	4310.97
491.04	4274.11
491.24	4298.69
491.45	4263.87
491.65	4267.97
491.85	4265.92
492.05	4390.84
492.25	4440.00
492.45	4401.08
492.65	4302.78
492.86	4440.00
493.06	4323.26
493.26	4274.11
493.46	4409.28
493.66	4347.84
493.86	4292.54
494.06	4401.08
494.26	4296.64
494.47	4435.90
494.67	4364.22
494.87	4513.72
495.07	4569.02
495.27	4579.26
495.47	4673.46
495.67	4665.27
495.87	4554.68
496.07	4589.50
496.28	4480.96
496.48	4351.93
496.68	4360.13
496.88	4401.08
497.08	4337.60
497.28	4294.59
497.48	4347.84
497.68	4122.56
497.88	4224.96
498.08	4276.16
498.29	4202.43
498.49	4177.86
498.69	4204.48
498.89	4310.97
499.09	4206.53
499.29	4048.83
499.49	4061.12
499.69	4102.08
499.89	4333.50
500.09	4245.44
500.29	4310.97
500.50	4294.59
500.70	4304.83
500.90	4276.16
501.10	4331.45
501.30	4251.58
501.50	4454.33
501.70	4327.36
501.90	4370.37
502.10	4327.36
502.30	4401.08
502.50	4392.89
502.70	4405.18
502.90	4310.97
503.10	4294.59
503.31	4229.06
503.51	4302.78
503.71	4431.80
503.91	4347.84
504.11	4331.45
504.31	4257.73
504.51	4147.14
504.71	4282.30
504.91	4200.38
505.11	4014.02
505.31	4153.28
505.51	4110.27
505.71	4110.27
505.91	3999.68
506.11	4116.42
506.31	4014.02
506.51	4157.38
506.71	4007.87
506.91	4165.57
507.11	4046.79
507.31	4061.12
507.51	4095.94
507.72	4042.69
507.92	4046.79
508.12	3956.68
508.32	3944.39
508.52	3964.87
508.72	4128.70
508.92	3942.34
509.12	4218.82
509.32	4024.26
509.52	4030.40
509.72	4048.83
509.92	4081.60
510.12	4034.50
510.32	4122.56
510.52	4102.08
510.72	4085.70
510.92	4054.98
511.12	3934.15
511.32	4040.64
511.52	4016.07
511.72	3932.10
511.92	4089.79
512.12	4112.32
512.32	4071.36
512.52	4081.60
512.72	4188.10
512.92	4147.14
513.12	4104.13
513.32	3895.24
513.52	4061.12
513.72	4036.55
513.92	4077.51
514.12	3928.00
514.32	3950.53
514.52	3901.38
514.72	3823.56
514.92	3940.29
515.12	4028.35
515.32	3993.54
515.52	3962.82
515.72	3981.25
515.92	4143.04
516.12	4159.42
516.32	4020.16
516.52	4005.83
516.72	3971.01
516.92	3919.81
517.12	4097.99
517.32	4050.88
517.51	4042.69
517.71	4112.32
517.91	4050.88
518.11	4124.61
518.31	4169.66
518.51	4218.82
518.71	4149.18
518.91	4065.22
519.11	4097.99
519.31	4091.84
519.51	4093.89
519.71	4140.99
519.91	4016.07
520.11	4042.69
520.31	4134.85
520.51	4046.79
520.71	4095.94
520.91	4147.14
521.11	4120.51
521.31	4151.23
521.51	4122.56
521.70	4093.89
521.90	4122.56
522.10	4179.90
522.30	4169.66
522.50	4167.62
522.70	4345.79
522.90	4200.38
523.10	4200.38
523.30	4165.57
523.50	4159.42
523.70	4220.86
523.90	4153.28
524.10	4057.03
524.30	4161.47
524.49	4165.57
524.69	4118.47
524.89	4175.81
525.09	4163.52
525.29	4224.96
525.49	4349.89
525.69	4259.78
525.89	4321.21
526.09	4300.73
526.29	4313.02
526.49	4110.27
526.68	4194.24
526.88	4171.71
527.08	4124.61
527.28	4204.48
527.48	4233.15
527.68	4251.58
527.88	4188.10
528.08	4177.86
528.28	4360.13
528.48	4288.45
528.67	4380.61
528.87	4300.73
529.07	4413.37
529.27	4179.90
529.47	4298.69
529.67	4310.97
529.87	4270.01
530.07	4138.94
530.26	4333.50
530.46	4239.30
530.66	4239.30
530.86	4308.93
531.06	4167.62
531.26	4249.54
531.46	4159.42
531.66	4233.15
531.85	4345.79
532.05	4235.20
532.25	4358.08
532.45	4388.80
532.65	4489.15
532.85	4349.89
533.05	4327.36
533.25	4427.71
533.44	4407.23
533.64	4335.55
533.84	4425.66
534.04	4384.70
534.24	4255.68
534.44	4454.33
534.63	4460.48
534.83	4358.08
535.03	4390.84
535.23	4392.89
535.43	4364.22
535.63	4290.49
535.83	4263.87
536.02	4294.59
536.22	4306.88
536.42	4362.17
536.62	4319.17
536.82	4368.32
537.02	4425.66
537.21	4419.52
537.41	4450.24
537.61	4425.66
537.81	4575.16
538.01	4528.06
538.21	4478.91
538.40	4630.46
538.60	4462.52
538.80	4685.75
539.00	4435.90
539.20	4624.31
539.39	4577.21
539.59	4511.68
539.79	4571.07
539.99	4523.96
540.19	4515.77
540.39	4575.16
540.58	4622.27
540.78	4616.12
540.98	4827.06
541.18	4849.59
541.38	4917.17
541.57	4851.64
541.77	4800.44
541.97	4810.68
542.17	4945.84
542.37	4958.13
542.56	4913.08
542.76	4829.11
542.96	4890.55
543.16	4956.08
543.35	5023.67
543.55	4917.17
543.75	5005.24
543.95	4894.65
544.15	5009.33
544.34	4911.03
544.54	5048.24
544.74	4911.03
544.94	4964.28
545.14	5029.81
545.33	5007.28
545.53	4745.14
545.73	4745.14
545.93	4704.18
546.12	4906.93
546.32	4835.25
546.52	4771.77
546.72	4841.40
546.91	4892.60
547.11	4802.49
547.31	4794.29
547.51	4841.40
547.70	4706.23
547.90	4687.80
548.10	4671.42
548.30	4683.70
548.50	4556.73
548.69	4612.03
548.89	4532.15
549.09	4556.73
549.29	4480.96
549.48	4517.82
549.68	4433.85
549.88	4382.65
550.07	4493.24
550.27	4419.52
550.47	4517.82
550.67	4591.55
550.86	4587.45
551.06	4695.99
551.26	4716.47
551.46	4577.21
551.65	4534.20
551.85	4861.88
552.05	4540.35
552.25	4671.42
552.44	4708.28
552.64	4640.70
552.84	4669.37
553.03	4628.41
553.23	4515.77
553.43	4650.94
553.63	4421.56
553.82	4790.20
554.02	4593.59
554.22	4702.14
554.41	4734.90
554.61	4757.43
554.81	4868.02
555.01	4648.89
555.20	4644.79
555.40	4538.30
555.60	4773.82
555.79	4523.96
555.99	4693.94
556.19	4401.08
556.38	4483.00
556.58	4558.78
556.78	4468.67
556.98	4421.56
557.17	4464.57
557.37	4358.08
557.57	4444.09
557.76	4392.89
557.96	4310.97
558.16	4511.68
558.35	4450.24
558.55	4313.02
558.75	4462.52
558.94	4624.31
559.14	4521.92
559.34	4751.29
559.53	4712.38
559.73	4931.51
559.93	4995.00
560.12	4929.46
560.32	4876.21
560.52	4925.36
560.71	5013.43
560.91	4919.22
561.11	4753.34
561.30	4777.91
561.50	4734.90
561.70	4814.77
561.89	4820.92
562.09	4937.65
562.29	4929.46
562.48	4958.13
562.68	4962.23
562.88	4806.58
563.07	4902.84
563.27	4868.02
563.47	4747.19
563.66	4868.02
563.86	4843.45
564.06	4749.24
564.25	4632.51
564.45	4634.55
564.64	4466.62
564.84	4616.12
565.04	4546.49
565.23	4581.31
565.43	4620.22
565.63	4669.37
565.82	4669.37
566.02	4695.99
566.22	4734.90
566.41	4847.54
566.61	4855.73
566.80	4896.69
567.00	4732.86
567.20	4876.21
567.39	5031.86
567.59	4837.30
567.78	5009.33
567.98	5281.71
568.18	5324.72
568.37	5230.51
568.57	5361.58
568.77	5334.96
568.96	5582.76
569.16	5543.85
569.35	5580.71
569.55	5564.33
569.75	5662.63
569.94	5914.53
570.14	6033.32
570.33	6094.76
570.53	6221.73
570.73	6115.23
570.92	6107.04
571.12	6205.35
571.31	5988.26
571.51	5871.53
571.71	5943.21
571.90	6117.28
572.10	6213.54
572.29	6217.63
572.49	6279.07
572.68	6277.02
572.88	6422.43
573.08	6299.55
573.27	6500.25
573.47	6530.97
573.66	6596.51
573.86	6641.56
574.05	6528.92
574.25	6434.72
574.45	6492.06
574.64	6381.47
574.84	6174.63
575.03	6281.12
575.23	6285.22
575.42	6279.07
575.62	6348.70
575.82	6477.73
576.01	6524.83
576.21	6797.21
576.40	6967.19
576.60	7034.77
576.79	7395.22
576.99	7559.05
577.18	7522.19
577.38	7407.50
577.57	7237.52
577.77	6977.43
577.97	6920.09
578.16	6576.03
578.36	6639.51
578.55	6676.38
578.75	6563.74
578.94	6610.84
579.14	6551.45
579.33	6373.28
579.53	6473.63
579.72	6666.14
579.92	7194.51
580.11	7591.82
580.31	7829.38
580.50	7909.26
580.70	8251.27
580.90	8304.51
581.09	7939.97
581.29	7419.79
581.48	7413.65
581.68	7272.34
581.87	7053.20
582.07	6596.51
582.26	6520.73
582.46	6338.46
582.65	6479.77
582.85	6127.52
583.04	6279.07
583.24	6092.71
583.43	6455.20
583.63	6739.87
583.82	6897.56
584.02	6959.00
584.21	7128.98
584.41	7423.89
584.60	7241.62
584.80	7143.32
584.99	7028.63
585.19	6954.90
585.38	6803.35
585.58	6565.79
585.77	6807.45
585.97	6592.41
586.16	6698.91
586.35	6674.33
586.55	6688.67
586.74	6758.30
586.94	6860.70
587.13	6721.43
587.33	6641.56
587.52	6317.98
587.72	6393.76
587.91	6291.36
588.11	6154.15
588.30	6053.80
588.50	6086.56
588.69	6266.78
588.89	6115.23
589.08	6029.22
589.28	5904.29
589.47	5857.19
589.66	5805.99
589.86	5846.95
590.05	5840.81
590.25	5861.29
590.44	5857.19
590.64	5969.83
590.83	6111.14
591.03	5928.87
591.22	6240.16
591.41	6373.28
591.61	6590.36
591.80	6729.63
592.00	6950.81
592.19	7163.79
592.39	7210.90
592.58	7036.82
592.78	6940.57
592.97	6602.65
593.16	6524.83
593.36	6342.56
593.55	6234.02
593.75	6051.75
593.94	6236.06
594.14	6227.87
594.33	6293.41
594.52	5992.36
594.72	5973.92
594.91	5840.81
595.11	5937.06
595.30	5769.13
595.49	5789.61
595.69	5744.55
595.88	5892.01
596.08	5810.09
596.27	6162.34
596.47	6281.12
596.66	6309.79
596.85	6311.84
597.05	6424.48
597.24	6313.89
597.44	6643.61
597.63	7042.96
597.82	7124.88
598.02	7063.44
598.21	7432.08
598.40	7374.74
598.60	7346.06
598.79	7274.38
598.99	7364.50
599.18	7485.33
599.37	7182.23
599.57	7120.79
599.76	7055.25
599.96	6723.48
600.15	6602.65
600.34	6545.31
600.54	6291.36
600.73	6342.56
600.92	6225.82
601.12	6031.27
601.31	5900.20
601.51	5834.66
601.70	5916.58
601.89	5969.83
602.09	5863.33
602.28	6094.76
602.47	6358.94
602.67	6485.92
602.86	6414.24
603.05	6416.29
603.25	6414.24
603.44	6408.09
603.63	6596.51
603.83	6479.77
604.02	6481.82
604.22	6678.43
604.41	6676.38
604.60	6817.69
604.80	6879.13
604.99	6739.87
605.18	6889.37
605.38	7051.16
605.57	7065.49
605.76	7047.06
605.96	7147.41
606.15	7221.14
606.34	7241.62
606.54	7040.92
606.73	7079.83
606.92	6942.61
607.12	6920.09
607.31	6653.85
607.50	6627.23
607.70	6322.08
607.89	6322.08
608.08	6342.56
608.28	6061.99
608.47	6025.12
608.66	6104.99
608.85	6203.30
609.05	6027.17
609.24	6045.60
609.43	6107.04
609.63	5957.54
609.82	6068.13
610.01	6135.71
610.21	6309.79
610.40	6350.75
610.59	6238.11
610.79	6266.78
610.98	6133.67
611.17	6195.11
611.36	6340.51
611.56	6238.11
611.75	6260.64
611.94	6227.87
612.14	6334.37
612.33	6248.35
612.52	6485.92
612.71	6303.65
612.91	6258.59
613.10	6180.77
613.29	6393.76
613.49	6668.19
613.68	6682.52
613.87	6770.58
614.06	6858.65
614.26	6821.78
614.45	6709.15
614.64	6590.36
614.83	6434.72
615.03	6346.66
615.22	6317.98
615.41	6203.30
615.60	6250.40
615.80	6076.32
615.99	6055.84
616.18	5873.57
616.38	5937.06
616.57	5849.00
616.76	5748.65
616.95	5955.49
617.15	5726.12
617.34	6057.89
617.53	5951.40
617.72	5818.28
617.92	5908.39
618.11	5742.50
618.30	5881.77
618.49	5941.16
618.68	6119.33
618.88	5734.31
619.07	6004.64
619.26	6111.14
619.45	6002.60
619.65	5973.92
619.84	5906.34
620.03	5668.78
620.22	5877.67
620.42	5838.76
620.61	6131.62
620.80	6139.81
620.99	6277.02
621.18	6260.64
621.38	6557.60
621.57	6533.02
621.76	6238.11
621.95	6270.88
622.15	6256.54
622.34	6289.31
622.53	6231.97
622.72	6324.13
622.91	6139.81
623.11	6277.02
623.30	6363.04
623.49	6262.69
623.68	6350.75
623.87	6356.90
624.07	6395.81
624.26	6272.93
624.45	6219.68
624.64	6037.41
624.83	6268.83
625.03	6061.99
625.22	6139.81
625.41	6104.99
625.60	6330.27
625.79	6246.30
625.98	6344.61
626.18	6131.62
626.37	6322.08
626.56	6172.58
626.75	6270.88
626.94	6348.70
627.14	6082.47
627.33	6131.62
627.52	6053.80
627.71	6031.27
627.90	6125.47
628.09	6238.11
628.29	6242.21
628.48	6244.26
628.67	6221.73
628.86	6145.95
629.05	6160.29
629.24	6002.60
629.43	6045.60
629.63	5928.87
629.82	6070.18
630.01	6225.82
630.20	6031.27
630.39	6000.55
630.58	5810.09
630.78	5844.90
630.97	5826.47
631.16	5918.63
631.35	5664.68
631.54	5820.33
631.73	5787.56
631.92	5691.31
632.11	5830.57
632.31	5822.38
632.50	5695.40
632.69	5621.67
632.88	5785.51
633.07	5666.73
633.26	5726.12
633.45	5748.65
633.65	5883.81
633.84	5566.38
634.03	5597.10
634.22	5607.34
634.41	5736.36
634.60	5691.31
634.79	5732.26
634.98	5799.85
635.17	5951.40
635.37	5957.54
635.56	6002.60
635.75	5787.56
635.94	5947.30
636.13	5859.24
636.32	5703.59
636.51	5978.02
636.70	5789.61
636.89	5889.96
637.08	5785.51
637.28	5744.55
637.47	5765.03
637.66	5703.59
637.85	5762.98
638.04	5709.74
638.23	5640.11
638.42	5674.92
638.61	5865.38
638.80	5699.50
638.99	5787.56
639.18	5668.78
639.38	5805.99
639.57	5691.31
639.76	5744.55
639.95	5748.65
640.14	5824.42
640.33	5736.36
640.52	5629.87
640.71	5717.93
640.90	5687.21
641.09	5785.51
641.28	5834.66
641.47	5726.12
641.66	5685.16
641.85	5769.13
642.04	5672.87
642.24	5717.93
642.43	5738.41
642.62	6225.82
642.81	5742.50
643.00	5801.90
643.19	5769.13
643.38	5726.12
643.57	5754.79
643.76	5853.09
643.95	5924.77
644.14	5736.36
644.33	5668.78
644.52	5826.47
644.71	5873.57
644.90	5707.69
645.09	5760.94
645.28	5705.64
645.47	5742.50
645.66	5726.12
645.85	5828.52
646.04	5857.19
646.23	5783.46
646.42	5715.88
646.61	5773.22
646.80	5879.72
646.99	5785.51
647.18	6064.04
647.37	6049.70
647.56	6039.46
647.75	6172.58
647.95	6162.34
648.14	6244.26
648.33	6160.29
648.52	6311.84
648.71	6227.87
648.90	6223.78
649.09	6088.61
649.28	6070.18
649.47	6070.18
649.66	6066.08
649.85	6002.60
650.04	6082.47
650.23	6035.36
650.42	6094.76
650.61	6121.38
650.79	6055.84
650.98	6057.89
651.17	6072.23
651.36	6260.64
651.55	6070.18
651.74	6201.25
651.93	6010.79
652.12	6307.74
652.31	6231.97
652.50	6123.43
652.69	6193.06
652.88	6102.95
653.07	6176.67
653.26	6055.84
653.45	6121.38
653.64	5941.16
653.83	5953.45
654.02	6096.80
654.21	6571.93
654.40	7053.20
654.59	8302.47
654.78	9402.22
654.97	10076.01
655.16	10295.14
655.35	10286.95
655.54	10047.33
655.73	9473.90
655.92	8460.16
656.11	8017.80
656.30	7638.92
656.48	7546.76
656.67	7317.39
656.86	7038.87
657.05	6930.33
657.24	6625.18
657.43	6471.58
657.62	6504.35
657.81	6459.29
658.00	6340.51
658.19	6326.18
658.38	6354.85
658.57	6262.69
658.76	6229.92
658.95	6127.52
659.13	6203.30
659.32	6131.62
659.51	6123.43
659.70	6076.32
659.89	6250.40
660.08	6057.89
660.27	6076.32
660.46	6191.01
660.65	6053.80
660.84	6107.04
661.03	6129.57
661.22	6000.55
661.40	6037.41
661.59	5986.21
661.78	6055.84
661.97	6086.56
662.16	6027.17
662.35	6234.02
662.54	6084.52
662.73	6107.04
662.92	6207.39
663.11	6336.42
663.29	6375.33
663.48	6262.69
663.67	6305.70
663.86	6373.28
664.05	6391.71
664.24	6307.74
664.43	6307.74
664.62	6272.93
664.80	6240.16
664.99	6193.06
665.18	6293.41
665.37	6231.97
665.56	6168.48
665.75	6168.48
665.94	6330.27
666.13	5959.59
666.31	6031.27
666.50	6283.17
666.69	6225.82
666.88	6299.55
667.07	6219.68
667.26	6137.76
667.45	6086.56
667.63	6172.58
667.82	6317.98
668.01	6287.26
668.20	6254.50
668.39	6416.29
668.58	6350.75
668.76	6438.81
668.95	6313.89
669.14	6447.01
669.33	6279.07
669.52	6236.06
669.71	6393.76
669.90	6313.89
670.08	6397.85
670.27	6592.41
670.46	6735.77
670.65	6690.71
670.84	6838.17
671.03	6721.43
671.21	6832.02
671.40	6762.39
671.59	6778.78
671.78	6627.23
671.97	6635.42
672.15	6614.94
672.34	6530.97
672.53	6666.14
672.72	6332.32
672.91	6492.06
673.09	6539.16
673.28	6473.63
673.47	6588.32
673.66	6399.90
673.85	6416.29
674.04	6453.15
674.22	6430.62
674.41	6334.37
674.60	6434.72
674.79	6545.31
674.98	6365.09
675.16	6397.85
675.35	6623.13
675.54	6444.96
675.73	6471.58
675.91	6563.74
676.10	6500.25
676.29	6434.72
676.48	6651.80
676.67	6645.66
676.85	6610.84
677.04	6487.96
677.23	6578.08
677.42	6588.32
677.60	6700.95
677.79	6498.20
677.98	6713.24
678.17	6768.54
678.36	6735.77
678.54	6809.50
678.73	6676.38
678.92	6696.86
679.11	6834.07
679.29	6698.91
679.48	6719.39
679.67	6733.72
679.86	6563.74
680.04	6498.20
680.23	6621.08
680.42	6700.95
680.61	6977.43
680.79	6582.17
680.98	6729.63
681.17	6639.51
681.36	6682.52
681.54	6573.98
681.73	6401.95
681.92	6559.64
682.11	6561.69
682.29	6520.73
682.48	6551.45
682.67	6561.69
682.85	6758.30
683.04	6739.87
683.23	6725.53
683.42	6809.50
683.60	6733.72
683.79	6770.58
683.98	6811.54
684.17	6901.65
684.35	7002.01
684.54	7073.68
684.73	7055.25
684.91	6999.96
685.10	7002.01
685.29	6807.45
685.48	7061.40
685.66	6946.71
685.85	6850.46
686.04	6643.61
686.22	6930.33
686.41	6680.47
686.60	6678.43
686.78	6834.07
686.97	6850.46
687.16	6850.46
687.35	6842.26
687.53	6766.49
687.72	6889.37
687.91	6731.67
688.09	6805.40
688.28	6799.26
688.47	7038.87
688.65	6766.49
688.84	6776.73
689.03	6834.07
689.21	6897.56
689.40	6901.65
689.59	6967.19
689.77	6995.86
689.96	7061.40
690.15	7151.51
690.33	7071.64
690.52	7194.51
690.71	7106.45
690.89	7098.26
691.08	7165.84
691.27	7034.77
691.45	6995.86
691.64	6979.48
691.83	6997.91
692.01	6954.90
692.20	7055.25
692.39	7055.25
692.57	7122.84
692.76	7006.10
692.95	6956.95
693.13	6911.89
693.32	6854.55
693.50	6856.60
693.69	6932.37
693.88	7081.88
694.06	7018.39
694.25	7143.32
694.44	6940.57
694.62	7208.85
694.81	7022.48
695.00	7049.11
695.18	6954.90
695.37	6930.33
695.55	7063.44
695.74	7155.60
695.93	7387.02
696.11	7335.82
696.30	7581.58
696.49	7526.29
696.67	7473.04
696.86	7427.98
697.04	7384.98
697.23	7458.70
697.42	7280.53
697.60	7290.77
697.79	7161.75
697.97	7247.76
698.16	7042.96
698.35	7241.62
698.53	7128.98
698.72	7180.18
698.90	7034.77
699.09	7139.22
699.28	7157.65
699.46	6983.57
699.65	7290.77
699.83	7032.72
700.02	6965.14
700.21	7042.96
700.39	7120.79
700.58	7153.55
700.76	6987.67
700.95	7114.64
701.13	7126.93
701.32	7309.20
701.51	7378.83
701.69	7405.46
701.88	7198.61
702.06	7266.19
702.25	7274.38
702.43	7356.30
702.62	7311.25
702.81	7278.48
702.99	7206.80
703.18	7255.95
703.36	7118.74
703.55	7178.13
703.73	7110.55
703.92	6991.77
704.10	7159.70
704.29	7274.38
704.48	7053.20
704.66	7094.16
704.85	7032.72
705.03	7231.38
705.22	7042.96
705.40	7364.50
705.59	7245.71
705.77	7485.33
705.96	7534.48
706.14	7618.44
706.33	7643.02
706.51	7726.99
706.70	7815.05
706.89	7651.21
707.07	7886.73
707.26	7591.82
707.44	7726.99
707.63	7718.79
707.81	7815.05
708.00	7681.93
708.18	7315.34
708.37	7487.37
708.55	7536.52
708.74	7421.84
708.92	7243.67
709.11	7399.31
709.29	7389.07
709.48	7399.31
709.66	7442.32
709.85	7303.06
710.03	7511.95
710.22	7374.74
710.40	7184.27
710.59	7350.16
710.77	7507.85
710.96	7305.10
711.14	7370.64
711.33	7235.47
711.51	7581.58
711.70	7530.38
711.88	7587.72
712.07	7698.31
712.25	7704.46
712.44	7688.07
712.62	7567.24
712.81	7737.23
712.99	7718.79
713.18	7655.31
713.36	7790.47
713.54	7630.73
713.73	7669.64
713.91	7638.92
714.10	7655.31
714.28	7589.77
714.47	7774.09
714.65	7493.52
714.84	7563.15
715.02	7454.61
715.21	7352.21
715.39	7497.61
715.58	7362.45
715.76	7511.95
715.94	7473.04
716.13	7473.04
716.31	7464.85
716.50	7319.44
716.68	7352.21
716.87	7516.05
717.05	7671.69
717.24	7516.05
717.42	7612.30
717.60	7391.12
717.79	7595.92
717.97	7636.88
718.16	7655.31
718.34	7739.27
718.53	7552.91
718.71	7653.26
718.89	7589.77
719.08	7499.66
719.26	7376.78
719.45	7421.84
719.63	7505.81
719.82	7507.85
720.00	7559.05
720.18	7522.19
720.37	7526.29
720.55	7645.07
720.74	7600.01
720.92	7505.81
721.10	7610.25
721.29	7587.72
721.47	7630.73
721.66	7530.38
721.84	7477.13
722.02	7587.72
722.21	7557.00
722.39	7624.59
722.58	7528.33
722.76	7524.24
722.94	7585.68
723.13	7487.37
723.31	7317.39
723.50	7530.38
723.68	7477.13
723.86	7493.52
724.05	7624.59
724.23	7563.15
724.41	7671.69
724.60	7575.44
724.78	7731.08
724.97	7645.07
725.15	7849.86
725.33	7503.76
725.52	7622.54
725.70	7559.05
725.88	7630.73
726.07	7640.97
726.25	7726.99
726.44	7606.16
726.62	7694.22
726.80	7602.06
726.99	7825.29
727.17	7901.06
727.35	7704.46
727.54	7806.86
727.72	7753.61
727.90	7712.65
728.09	7714.70
728.27	7692.17
728.45	7784.33
728.64	7901.06
728.82	7950.21
729.00	7819.14
729.19	7944.07
729.37	7868.30
729.55	8050.57
729.74	8187.78
729.92	8179.59
730.10	8238.98
730.29	8368.00
730.47	8390.53
730.65	8236.93
730.84	8320.90
731.02	8222.59
731.20	8265.60
731.39	8263.55
731.57	8122.24
731.75	8103.81
731.94	8150.92
732.12	8392.58
732.30	8157.06
732.49	8169.35
732.67	8064.90
732.85	8279.94
733.03	8290.18
733.22	8122.24
733.40	8138.63
733.58	8198.02
733.77	8169.35
733.95	8159.11
734.13	8165.25
734.32	8226.69
734.50	8052.61
734.68	8431.49
734.86	8402.82
735.05	8259.46
735.23	8230.79
735.41	8204.16
735.60	8114.05
735.78	8163.20
735.96	8015.75
736.14	8157.06
736.33	8257.41
736.51	8255.36
736.69	8091.52
736.87	8157.06
737.06	8042.37
737.24	8195.97
737.42	7982.98
737.61	8103.81
737.79	8179.59
737.97	8439.68
738.15	8281.99
738.34	8365.95
738.52	8380.29
738.70	8361.86
738.88	8255.36
739.07	8171.40
739.25	8081.28
739.43	7997.32
739.61	7901.06
739.80	7939.97
739.98	7675.79
740.16	7839.62
740.34	7817.10
740.52	7806.86
740.71	7860.10
740.89	7757.71
741.07	7905.16
741.25	7931.78
741.44	7729.03
741.62	7907.21
741.80	7982.98
741.98	7853.96
742.17	7780.23
742.35	7849.86
742.53	7761.80
742.71	7833.48
742.89	7643.02
743.08	7661.45
743.26	7499.66
743.44	7681.93
743.62	7620.49
743.80	7606.16
743.99	7745.42
744.17	7552.91
744.35	7677.83
744.53	7653.26
744.71	7675.79
744.90	7769.99
745.08	7638.92
745.26	7604.11
745.44	7751.56
745.62	7778.19
745.81	7620.49
745.99	7675.79
746.17	7780.23
746.35	7692.17
746.53	7679.88
746.72	7784.33
746.90	7610.25
747.08	7606.16
747.26	7464.85
747.44	7604.11
747.62	7575.44
747.81	7520.14
747.99	7468.94
748.17	7610.25
748.35	7677.83
748.53	7679.88
748.71	7800.71
748.90	7833.48
749.08	7841.67
749.26	7833.48
749.44	7800.71
749.62	7946.12
749.80	7888.78
749.99	7878.54
750.17	7837.58
750.35	7776.14
750.53	7962.50
750.71	7794.57
750.89	7933.83
751.07	7944.07
751.26	7880.58
751.44	7747.47
751.62	7663.50
751.80	7757.71
751.98	7798.66
752.16	7761.80
752.34	7817.10
752.53	7921.54
752.71	7931.78
752.89	7681.93
753.07	7874.44
753.25	7909.26
753.43	7702.41
753.61	7778.19
753.79	7782.28
753.98	7939.97
754.16	7944.07
754.34	7978.89
754.52	7927.69
754.70	7907.21
754.88	8109.96
755.06	8208.26
755.24	8216.45
755.42	8333.18
755.60	8167.30
755.79	8447.87
755.97	8460.16
756.15	8621.95
756.33	8843.13
756.51	9123.70
756.69	8906.62
756.87	8923.00
757.05	9240.44
757.23	9109.36
757.41	8933.24
757.60	8826.75
757.78	8890.23
757.96	9025.40
758.14	8871.80
758.32	8982.39
758.50	8822.65
758.68	8998.77
758.86	8994.68
759.04	9144.18
759.22	9371.50
759.40	9334.64
759.58	9463.66
759.76	9461.62
759.94	9584.49
760.13	9633.64
760.31	9545.58
760.49	9537.39
760.67	9566.06
760.85	9680.75
761.03	9551.73
761.21	9570.16
761.39	9693.04
761.57	9559.92
761.75	9672.56
761.93	9895.78
762.11	9830.25
762.29	9895.78
762.47	9594.73
762.65	10024.81
762.83	9983.85
763.01	10151.78
763.19	10055.53
763.37	10092.39
763.55	10518.37
763.73	10495.84
763.91	10512.22
764.09	10682.20
764.27	10774.36
764.45	10700.64
764.64	10757.98
764.82	10336.10
765.00	10284.90
765.18	10245.99
765.36	10135.40
765.54	10106.73
765.72	9987.94
765.90	10035.05
766.08	9930.60
766.26	9899.88
766.44	10033.00
766.62	10108.77
766.80	10100.58
766.98	10250.08
767.16	10266.47
767.34	10299.23
767.52	10465.12
767.70	10393.44
767.88	10354.53
768.06	10518.37
768.24	10469.22
768.42	10293.09
768.60	10280.80
768.78	10080.10
768.96	10104.68
769.13	10010.47
769.31	9908.07
769.49	9928.55
769.67	10055.53
769.85	9856.87
770.03	9949.03
770.21	9965.42
770.39	9959.27
770.57	9709.42
770.75	9764.72
770.93	9752.43
771.11	9852.78
771.29	9688.94
771.47	9838.44
771.65	9762.67
771.83	9529.20
772.01	9582.45
772.19	9662.32
772.37	9486.19
772.55	9455.47
772.73	9672.56
772.91	9265.01
773.09	9510.77
773.27	9338.74
773.44	9488.24
773.62	9379.70
773.80	9213.81
773.98	9269.11
774.16	9213.81
774.34	9312.11
774.52	9158.52
774.70	9113.46
774.88	9056.12
775.06	9045.88
775.24	9047.93
775.42	8982.39
775.60	9119.60
775.78	9121.65
775.95	8834.94
776.13	9009.01
776.31	8916.86
776.49	8775.55
776.67	8810.36
776.85	8759.16
777.03	8673.15
777.21	8849.27
777.39	8980.34
777.57	8814.46
777.75	8705.92
777.92	8959.86
778.10	8703.87
778.28	8595.32
778.46	8783.74
778.64	8658.81
778.82	8595.32
779.00	8732.54
779.18	8585.08
779.36	8611.71
779.53	8638.33
779.71	8578.94
779.89	8900.47
780.07	9023.35
780.25	8857.46
780.43	8865.66
780.61	8882.04
780.79	8816.51
780.96	8787.83
781.14	8781.69
781.32	8654.72
781.50	8742.78
781.68	8724.35
781.86	8628.09
782.04	8773.50
782.21	8736.63
782.39	8808.31
782.57	8531.84
782.75	8380.29
782.93	8482.69
783.11	8519.55
783.29	8492.93
783.46	8554.37
783.64	8185.73
783.82	8294.27
784.00	8341.38
784.18	8347.52
784.36	8269.70
784.54	8546.17
784.71	8503.17
784.89	8429.44
785.07	8370.05
785.25	8454.02
785.43	8343.42
785.60	8284.03
785.78	8200.07
785.96	8187.78
786.14	8265.60
786.32	8060.80
786.50	8327.04
786.67	8118.15
786.85	8331.14
787.03	8368.00
787.21	8423.30
787.39	8474.49
787.56	8525.69
787.74	8509.31
787.92	8374.14
788.10	8468.35
788.28	8314.75
788.45	8249.22
788.63	7993.22
788.81	8101.76
788.99	8058.76
789.17	8107.91
789.34	7958.41
789.52	8126.34
789.70	7929.74
789.88	7978.89
790.06	7899.02
790.23	8128.39
790.41	8005.51
790.59	7989.13
790.77	8103.81
790.95	8126.34
791.12	7919.50
791.30	7933.83
791.48	7946.12
791.66	8013.70
791.83	7956.36
792.01	7915.40
792.19	7919.50
792.37	8005.51
792.54	8265.60
792.72	8363.90
792.90	8222.59
793.08	8425.34
793.25	8382.34
793.43	8269.70
793.61	8320.90
793.79	8357.76
793.96	8284.03
794.14	8161.16
794.32	8073.09
794.50	8101.76
794.67	7911.30
794.85	8028.04
795.03	7788.43
795.21	7614.35
795.38	7585.68
795.56	7591.82
795.74	7481.23
795.92	7511.95
796.09	7585.68
796.27	7552.91
796.45	7557.00
796.62	7542.67
796.80	7403.41
796.98	7432.08
797.16	7466.89
797.33	7581.58
797.51	7442.32
797.69	7466.89
797.86	7511.95
798.04	7516.05
798.22	7499.66
798.40	7448.46
798.57	7493.52
798.75	7278.48
798.93	7339.92
799.10	7264.15
799.28	7106.45
799.46	7366.54
799.63	7282.58
799.81	7116.69
799.99	7274.38
800.17	7165.84
800.34	7344.02
800.52	7294.86
800.70	7362.45
800.87	7243.67
801.05	7266.19
801.23	7352.21
801.40	7202.71
801.58	7120.79
801.76	7198.61
801.93	7190.42
802.11	7235.47
802.29	7204.75
802.46	7159.70
802.64	7307.15
802.82	7098.26
802.99	7161.75
803.17	6942.61
803.35	6944.66
803.52	7133.08
803.70	7163.79
803.88	7112.60
804.05	7126.93
804.23	7028.63
804.41	7079.83
804.58	7073.68
804.76	7194.51
804.94	7305.10
805.11	7202.71
805.29	7311.25
805.46	7278.48
805.64	7337.87
805.82	7231.38
805.99	7200.66
806.17	7258.00
806.35	7423.89
806.52	7139.22
806.70	7067.54
806.87	7253.91
807.05	7034.77
807.23	7237.52
807.40	7325.58
807.58	6963.09
807.76	7145.36
807.93	7004.05
808.11	6862.74
808.28	7055.25
808.46	7038.87
808.64	6995.86
808.81	6950.81
808.99	7131.03
809.16	6950.81
809.34	7059.35
809.52	6938.52
809.69	6965.14
809.87	6875.03
810.04	6815.64
810.22	7018.39
810.40	6875.03
810.57	6901.65
810.75	6827.93
810.92	6743.96
811.10	6825.88
811.28	6885.27
811.45	6932.37
811.63	6782.87
811.80	6940.57
811.98	6852.50
812.15	6981.53
812.33	6723.48
812.51	6760.34
812.68	6936.47
812.86	7065.49
813.03	7014.29
813.21	6959.00
813.38	6971.29
813.56	6780.82
813.74	6944.66
813.91	6928.28
814.09	6623.13
814.26	6780.82
814.44	6737.82
814.61	6801.30
814.79	6657.95
814.96	6690.71
815.14	6516.64
815.31	6807.45
815.49	6844.31
815.67	6932.37
815.84	6750.10
816.02	6854.55
816.19	6913.94
816.37	6805.40
816.54	6805.40
816.72	6762.39
816.89	6588.32
817.07	6711.19
817.24	6625.18
817.42	6625.18
817.59	6713.24
817.77	6725.53
817.94	6666.14
818.12	6672.28
818.29	6502.30
818.47	6719.39
818.64	6746.01
818.82	6819.74
818.99	6641.56
819.17	6625.18
819.34	6750.10
819.52	6715.29
819.69	6821.78
819.87	6774.68
820.04	6637.47
820.22	6815.64
820.39	6651.80
820.57	6610.84
820.74	6668.19
820.92	6528.92
821.09	6586.27
821.27	6576.03
821.44	6709.15
821.62	6623.13
821.79	6639.51
821.97	6526.88
822.14	6690.71
822.32	6612.89
822.49	6522.78
822.67	6592.41
822.84	6467.49
823.02	6539.16
823.19	6485.92
823.37	6504.35
823.54	6426.53
823.72	6526.88
823.89	6483.87
824.06	6455.20
824.24	6447.01
824.41	6668.19
824.59	6313.89
824.76	6588.32
824.94	6500.25
825.11	6526.88
825.29	6432.67
825.46	6432.67
825.63	6520.73
825.81	6741.91
825.98	6641.56
826.16	6719.39
826.33	6668.19
826.51	6756.25
826.68	6727.58
826.86	6578.08
827.03	6541.21
827.20	6512.54
827.38	6438.81
827.55	6569.88
827.73	6344.61
827.90	6426.53
828.07	6530.97
828.25	6412.19
828.42	6320.03
828.60	6485.92
828.77	6406.05
828.95	6258.59
829.12	6227.87
829.29	6307.74
829.47	6330.27
829.64	6332.32
829.82	6293.41
829.99	6285.22
830.16	6215.59
830.34	6082.47
830.51	6191.01
830.69	6217.63
830.86	6104.99
831.03	5922.73
831.21	6270.88
831.38	6164.39
831.55	6119.33
831.73	6193.06
831.90	6145.95
832.08	6117.28
832.25	6373.28
832.42	6178.72
832.60	6121.38
832.77	6057.89
832.94	6188.96
833.12	6213.54
833.29	6148.00
833.47	6201.25
833.64	6100.90
833.81	6188.96
833.99	6158.24
834.16	6297.50
834.33	6084.52
834.51	6021.03
834.68	6162.34
834.85	6227.87
835.03	6131.62
835.20	6115.23
835.37	6174.63
835.55	6066.08
835.72	6018.98
835.90	6143.91
836.07	6025.12
836.24	6064.04
836.42	6102.95
836.59	6018.98
836.76	6051.75
836.94	5978.02
837.11	6102.95
837.28	5881.77
837.46	5828.52
837.63	5978.02
837.80	5887.91
837.97	6053.80
838.15	6051.75
838.32	6010.79
838.49	5961.64
838.67	6166.43
838.84	5980.07
839.01	5883.81
839.19	5967.78
839.36	5922.73
839.53	5965.73
839.71	5980.07
839.88	5988.26
840.05	5844.90
840.22	5875.62
840.40	6014.88
840.57	5902.25
840.74	5810.09
840.92	5978.02
841.09	6043.56
841.26	5869.48
841.43	5910.44
841.61	5945.25
841.78	5951.40
841.95	5898.15
842.13	5908.39
842.30	5861.29
842.47	5840.81
842.64	5875.62
842.82	5947.30
842.99	5799.85
843.16	5887.91
843.34	5799.85
843.51	5769.13
843.68	5904.29
843.85	5937.06
844.03	5892.01
844.20	5887.91
844.37	5920.68
844.54	5967.78
844.72	5762.98
844.89	5865.38
845.06	5672.87
845.23	5863.33
845.41	5707.69
845.58	5722.02
845.75	5920.68
845.92	5832.62
846.10	5576.62
846.27	5844.90
846.44	5767.08
846.61	5732.26
846.78	5824.42
846.96	5834.66
847.13	5713.83
847.30	5695.40
847.47	5875.62
847.65	5793.70
847.82	5691.31
847.99	5717.93
848.16	5695.40
848.33	5699.50
848.51	5756.84
848.68	5631.91
848.85	5734.31
849.02	5754.79
849.19	5679.02
849.37	5707.69
849.54	5750.70
849.71	5613.48
849.88	5857.19
850.05	5715.88
850.23	5687.21
850.40	5660.59
850.57	5554.09
850.74	5619.63
850.91	5660.59
851.09	5785.51
851.26	5601.19
851.43	5732.26
851.60	5736.36
851.77	5597.10
851.95	5672.87
852.12	5519.28
852.29	5601.19
852.46	5556.14
852.63	5699.50
852.80	5642.15
852.98	5631.91
853.15	5773.22
853.32	5582.76
853.49	5552.04
853.66	5406.64
853.83	5504.94
854.01	5625.77
854.18	5660.59
854.35	5441.45
854.52	5607.34
854.69	5652.39
854.86	5646.25
855.03	5595.05
855.21	5552.04
855.38	5547.95
855.55	5531.56
855.72	5447.60
855.89	5498.80
856.06	5423.02
856.23	5502.89
856.41	5412.78
856.58	5498.80
856.75	5547.95
856.92	5291.95
857.09	5414.83
857.26	5359.53
857.43	5523.37
857.60	5457.84
857.78	5400.49
857.95	5406.64
858.12	5269.42
858.29	5433.26
858.46	5406.64
858.63	5447.60
858.80	5529.52
858.97	5248.94
859.14	5515.18
859.32	5406.64
859.49	5244.85
859.66	5324.72
859.83	5328.81
860.00	5498.80
860.17	5279.66
860.34	5275.57
860.51	5298.10
860.68	5232.56
860.85	5199.79
861.02	5242.80
861.20	5248.94
861.37	5238.70
861.54	5339.05
861.71	5246.90
861.88	5406.64
862.05	5357.49
862.22	5195.70
862.39	5214.13
862.56	5234.61
862.73	5320.62
862.90	5224.37
863.07	5093.30
863.24	5066.67
863.41	5156.79
863.59	5136.31
863.76	5328.81
863.93	4945.84
864.10	5099.44
864.27	4954.04
864.44	5017.52
864.61	5183.41
864.78	5040.05
864.95	5152.69
865.12	5138.35
865.29	5105.59
865.46	4974.52
865.63	5035.96
865.80	4902.84
865.97	5023.67
866.14	5005.24
866.31	5019.57
866.48	4872.12
866.65	5070.77
866.82	5074.87
866.99	4921.27
867.16	4999.09
867.33	4868.02
867.50	4878.26
867.67	4937.65
867.84	4853.69
868.01	4995.00
868.18	4939.70
868.35	4792.25
868.52	4743.10
868.69	5017.52
868.86	4806.58
869.03	4800.44
869.20	4859.83
869.37	4743.10
869.54	4800.44
869.71	4657.08
869.88	4753.34
870.05	4714.42
870.22	4812.73
870.39	4784.06
870.56	4671.42
870.73	4833.21
870.90	4704.18
871.07	4687.80
871.24	4710.33
871.41	4704.18
871.58	4552.63
871.75	4566.97
871.92	4671.42
872.09	4769.72
872.26	4628.41
872.43	4534.20
872.60	4618.17
872.77	4499.39
872.94	4483.00
873.11	4718.52
873.28	4468.67
873.45	4435.90
873.62	4564.92
873.79	4538.30
873.96	4519.87
874.13	4562.87
874.30	4501.44
874.47	4388.80
874.64	4501.44
874.80	4413.37
874.97	4509.63
875.14	4325.31
875.31	4444.09
875.48	4427.71
875.65	4396.99
875.82	4452.28
875.99	4386.75
876.16	4341.69
876.33	4347.84
876.50	4372.41
876.67	4224.96
876.84	4212.67
877.01	4313.02
877.17	4298.69
877.34	4247.49
877.51	4210.62
877.68	4212.67
877.85	4263.87
878.02	4249.54
878.19	4233.15
878.36	4384.70
878.53	4114.37
878.70	4149.18
878.87	4286.40
879.03	4169.66
879.20	4177.86
879.37	4052.93
879.54	4200.38
879.71	4069.31
879.88	4190.14
880.05	4003.78
880.22	4147.14
880.39	4028.35
880.55	4026.31
880.72	4081.60
880.89	3950.53
881.06	3930.05
881.23	3928.00
881.40	3936.20
881.57	3864.52
881.74	3923.91
881.90	3819.46
882.07	3872.71
882.24	3889.09
882.41	3813.32
882.58	3846.09
882.75	3907.52
882.92	3796.93
883.08	3717.06
883.25	3858.37
883.42	3760.07
883.59	3741.64
883.76	3594.19
883.93	3696.58
884.09	3774.41
884.26	3747.78
884.43	3866.56
884.60	3764.17
884.77	3704.78
884.94	3717.06
885.10	3741.64
885.27	3712.97
885.44	3622.86
885.61	3602.38
885.78	3633.10
885.95	3540.94
886.11	3520.46
886.28	3540.94
886.45	3565.51
886.62	3479.50
886.79	3618.76
886.96	3432.40
887.12	3391.44
887.29	3567.56
887.46	3502.03
887.63	3631.05
887.80	3547.08
887.96	3452.88
888.13	3454.92
888.30	3307.47
888.47	3364.81
888.64	3293.13
888.80	3307.47
888.97	3352.52
889.14	3225.55
889.31	3342.28
889.47	3327.95
889.64	3297.23
889.81	3334.09
889.98	3198.93
890.15	3233.74
890.31	3186.64
890.48	3186.64
890.65	3186.64
890.82	3186.64
890.98	3186.64
891.15	3186.64
>>>>>End Processed Spectral Data<<<<<
