SpectraSuite Data File
++++++++++++++++++++++++++++++++++++
Date: Fri Jan 24 16:59:32 MST 2020
User: Molly
Dark Spectrum Present: Yes
Reference Spectrum Present: Yes
Number of Sampled Component Spectra: 1
Spectrometers: USB4E03280
Integration Time (usec): 32000 (USB4E03280)
Spectra Averaged: 1 (USB4E03280)
Boxcar Smoothing: 0 (USB4E03280)
Correct for Electrical Dark: No (USB4E03280)
Strobe/Lamp Enabled: Yes (USB4E03280)
Correct for Detector Non-linearity: No (USB4E03280)
Correct for Stray Light: No (USB4E03280)
Number of Pixels in Processed Spectrum: 3648
>>>>>Begin Processed Spectral Data<<<<<
177.66	1159.15
177.88	1159.15
178.10	1159.15
178.32	1212.40
178.54	1316.84
178.76	1200.11
178.98	1220.59
179.19	1202.16
179.41	1228.78
179.63	1234.93
179.85	1157.10
180.07	1257.45
180.29	1167.34
180.51	1226.73
180.72	1273.84
180.94	1220.59
181.16	1267.69
181.38	1253.36
181.60	1277.93
181.82	1204.21
182.04	1253.36
182.25	1200.11
182.47	1265.64
182.69	1255.40
182.91	1226.73
183.13	1286.12
183.35	1228.78
183.56	1277.93
183.78	1243.12
184.00	1306.60
184.22	1267.69
184.44	1224.69
184.66	1318.89
184.87	1224.69
185.09	1204.21
185.31	1232.88
185.53	1277.93
185.75	1157.10
185.97	1263.60
186.18	1181.68
186.40	1257.45
186.62	1288.17
186.84	1224.69
187.06	1216.49
187.28	1333.23
187.49	1243.12
187.71	1267.69
187.93	1333.23
188.15	1257.45
188.37	1181.68
188.59	1177.58
188.80	1230.83
189.02	1304.56
189.24	1273.84
189.46	1155.05
189.68	1214.45
189.89	1206.25
190.11	1214.45
190.33	1257.45
190.55	1251.31
190.77	1214.45
190.98	1224.69
191.20	1232.88
191.42	1236.97
191.64	1245.16
191.86	1202.16
192.07	1298.41
192.29	1249.26
192.51	1220.59
192.73	1220.59
192.95	1300.46
193.16	1265.64
193.38	1228.78
193.60	1292.27
193.82	1232.88
194.04	1232.88
194.25	1269.74
194.47	1241.07
194.69	1241.07
194.91	1220.59
195.13	1173.49
195.34	1226.73
195.56	1208.30
195.78	1181.68
196.00	1202.16
196.22	1226.73
196.43	1249.26
196.65	1220.59
196.87	1234.93
197.09	1241.07
197.30	1243.12
197.52	1159.15
197.74	1177.58
197.96	1251.31
198.18	1224.69
198.39	1202.16
198.61	1241.07
198.83	1241.07
199.05	1163.25
199.26	1200.11
199.48	1204.21
199.70	1146.86
199.92	1241.07
200.13	1251.31
200.35	1273.84
200.57	1216.49
200.79	1290.22
201.00	1245.16
201.22	1296.36
201.44	1216.49
201.66	1232.88
201.88	1277.93
202.09	1179.63
202.31	1198.06
202.53	1284.08
202.75	1236.97
202.96	1222.64
203.18	1173.49
203.40	1212.40
203.62	1144.81
203.83	1282.03
204.05	1220.59
204.27	1236.97
204.49	1191.92
204.70	1218.54
204.92	1206.25
205.14	1200.11
205.35	1247.21
205.57	1275.88
205.79	1202.16
206.01	1210.35
206.22	1136.62
206.44	1196.01
206.66	1193.97
206.88	1239.02
207.09	1249.26
207.31	1263.60
207.53	1228.78
207.75	1163.25
207.96	1253.36
208.18	1269.74
208.40	1206.25
208.61	1331.18
208.83	1243.12
209.05	1275.88
209.27	1251.31
209.48	1284.08
209.70	1306.60
209.92	1275.88
210.14	1234.93
210.35	1228.78
210.57	1259.50
210.79	1222.64
211.00	1236.97
211.22	1247.21
211.44	1251.31
211.66	1198.06
211.87	1171.44
212.09	1251.31
212.31	1236.97
212.52	1165.29
212.74	1208.30
212.96	1218.54
213.17	1220.59
213.39	1265.64
213.61	1212.40
213.83	1220.59
214.04	1208.30
214.26	1214.45
214.48	1202.16
214.69	1261.55
214.91	1130.48
215.13	1245.16
215.34	1255.40
215.56	1177.58
215.78	1232.88
216.00	1253.36
216.21	1222.64
216.43	1236.97
216.65	1193.97
216.86	1290.22
217.08	1247.21
217.30	1239.02
217.51	1181.68
217.73	1251.31
217.95	1226.73
218.16	1292.27
218.38	1245.16
218.60	1241.07
218.81	1277.93
219.03	1259.50
219.25	1286.12
219.46	1282.03
219.68	1216.49
219.90	1286.12
220.11	1208.30
220.33	1288.17
220.55	1230.83
220.76	1228.78
220.98	1243.12
221.20	1300.46
221.41	1302.51
221.63	1165.29
221.85	1224.69
222.06	1265.64
222.28	1253.36
222.50	1200.11
222.71	1202.16
222.93	1259.50
223.15	1257.45
223.36	1228.78
223.58	1191.92
223.80	1255.40
224.01	1181.68
224.23	1322.99
224.45	1196.01
224.66	1161.20
224.88	1226.73
225.10	1230.83
225.31	1220.59
225.53	1249.26
225.75	1273.84
225.96	1202.16
226.18	1241.07
226.39	1173.49
226.61	1218.54
226.83	1300.46
227.04	1259.50
227.26	1304.56
227.48	1277.93
227.69	1243.12
227.91	1245.16
228.13	1218.54
228.34	1210.35
228.56	1236.97
228.77	1251.31
228.99	1185.77
229.21	1269.74
229.42	1150.96
229.64	1212.40
229.86	1243.12
230.07	1257.45
230.29	1216.49
230.50	1320.94
230.72	1191.92
230.94	1236.97
231.15	1220.59
231.37	1331.18
231.58	1204.21
231.80	1204.21
232.02	1261.55
232.23	1214.45
232.45	1206.25
232.67	1234.93
232.88	1228.78
233.10	1191.92
233.31	1265.64
233.53	1273.84
233.75	1185.77
233.96	1247.21
234.18	1212.40
234.39	1263.60
234.61	1171.44
234.83	1204.21
235.04	1185.77
235.26	1241.07
235.47	1165.29
235.69	1277.93
235.91	1275.88
236.12	1167.34
236.34	1282.03
236.55	1198.06
236.77	1308.65
236.99	1198.06
237.20	1251.31
237.42	1273.84
237.63	1128.43
237.85	1273.84
238.06	1234.93
238.28	1232.88
238.50	1273.84
238.71	1157.10
238.93	1239.02
239.14	1273.84
239.36	1189.87
239.58	1232.88
239.79	1206.25
240.01	1216.49
240.22	1196.01
240.44	1267.69
240.65	1226.73
240.87	1265.64
241.09	1208.30
241.30	1187.82
241.52	1216.49
241.73	1271.79
241.95	1253.36
242.16	1228.78
242.38	1183.73
242.59	1247.21
242.81	1257.45
243.03	1277.93
243.24	1230.83
243.46	1183.73
243.67	1257.45
243.89	1202.16
244.10	1261.55
244.32	1241.07
244.53	1183.73
244.75	1198.06
244.97	1230.83
245.18	1351.66
245.40	1189.87
245.61	1230.83
245.83	1210.35
246.04	1263.60
246.26	1300.46
246.47	1220.59
246.69	1165.29
246.90	1232.88
247.12	1286.12
247.34	1253.36
247.55	1179.63
247.77	1230.83
247.98	1216.49
248.20	1273.84
248.41	1222.64
248.63	1239.02
248.84	1277.93
249.06	1239.02
249.27	1263.60
249.49	1185.77
249.70	1239.02
249.92	1222.64
250.13	1245.16
250.35	1181.68
250.56	1302.51
250.78	1265.64
251.00	1210.35
251.21	1257.45
251.43	1236.97
251.64	1187.82
251.86	1263.60
252.07	1187.82
252.29	1214.45
252.50	1255.40
252.72	1202.16
252.93	1200.11
253.15	1181.68
253.36	1282.03
253.58	1310.70
253.79	1239.02
254.01	1210.35
254.22	1210.35
254.44	1251.31
254.65	1247.21
254.87	1290.22
255.08	1245.16
255.30	1212.40
255.51	1177.58
255.73	1206.25
255.94	1275.88
256.16	1234.93
256.37	1218.54
256.59	1251.31
256.80	1243.12
257.02	1187.82
257.23	1212.40
257.45	1296.36
257.66	1271.79
257.88	1206.25
258.09	1273.84
258.31	1247.21
258.52	1198.06
258.74	1284.08
258.95	1228.78
259.16	1222.64
259.38	1261.55
259.59	1292.27
259.81	1243.12
260.02	1239.02
260.24	1247.21
260.45	1226.73
260.67	1261.55
260.88	1241.07
261.10	1157.10
261.31	1292.27
261.53	1198.06
261.74	1232.88
261.96	1208.30
262.17	1249.26
262.39	1181.68
262.60	1243.12
262.81	1206.25
263.03	1230.83
263.24	1226.73
263.46	1263.60
263.67	1220.59
263.89	1228.78
264.10	1230.83
264.32	1239.02
264.53	1247.21
264.75	1288.17
264.96	1220.59
265.17	1191.92
265.39	1243.12
265.60	1247.21
265.82	1171.44
266.03	1228.78
266.25	1204.21
266.46	1228.78
266.68	1263.60
266.89	1263.60
267.10	1228.78
267.32	1228.78
267.53	1251.31
267.75	1200.11
267.96	1196.01
268.18	1255.40
268.39	1206.25
268.61	1300.46
268.82	1200.11
269.03	1204.21
269.25	1202.16
269.46	1196.01
269.68	1224.69
269.89	1300.46
270.11	1220.59
270.32	1284.08
270.53	1245.16
270.75	1286.12
270.96	1269.74
271.18	1179.63
271.39	1222.64
271.60	1230.83
271.82	1222.64
272.03	1249.26
272.25	1267.69
272.46	1241.07
272.68	1241.07
272.89	1232.88
273.10	1200.11
273.32	1253.36
273.53	1236.97
273.75	1253.36
273.96	1241.07
274.17	1236.97
274.39	1208.30
274.60	1222.64
274.82	1208.30
275.03	1292.27
275.24	1257.45
275.46	1251.31
275.67	1290.22
275.89	1302.51
276.10	1214.45
276.31	1288.17
276.53	1236.97
276.74	1284.08
276.96	1230.83
277.17	1210.35
277.38	1241.07
277.60	1296.36
277.81	1216.49
278.02	1224.69
278.24	1218.54
278.45	1212.40
278.67	1265.64
278.88	1316.84
279.09	1204.21
279.31	1273.84
279.52	1214.45
279.73	1222.64
279.95	1171.44
280.16	1226.73
280.38	1249.26
280.59	1228.78
280.80	1196.01
281.02	1191.92
281.23	1218.54
281.44	1218.54
281.66	1232.88
281.87	1222.64
282.09	1251.31
282.30	1146.86
282.51	1206.25
282.73	1232.88
282.94	1234.93
283.15	1226.73
283.37	1275.88
283.58	1286.12
283.79	1232.88
284.01	1167.34
284.22	1290.22
284.43	1198.06
284.65	1220.59
284.86	1241.07
285.07	1212.40
285.29	1230.83
285.50	1255.40
285.72	1202.16
285.93	1206.25
286.14	1220.59
286.36	1198.06
286.57	1212.40
286.78	1228.78
287.00	1245.16
287.21	1222.64
287.42	1261.55
287.64	1187.82
287.85	1212.40
288.06	1236.97
288.28	1171.44
288.49	1251.31
288.70	1232.88
288.92	1269.74
289.13	1251.31
289.34	1202.16
289.56	1232.88
289.77	1206.25
289.98	1294.32
290.19	1302.51
290.41	1247.21
290.62	1212.40
290.83	1214.45
291.05	1245.16
291.26	1245.16
291.47	1255.40
291.69	1339.37
291.90	1208.30
292.11	1220.59
292.33	1331.18
292.54	1273.84
292.75	1216.49
292.97	1222.64
293.18	1183.73
293.39	1214.45
293.60	1206.25
293.82	1206.25
294.03	1241.07
294.24	1226.73
294.46	1204.21
294.67	1179.63
294.88	1228.78
295.10	1222.64
295.31	1216.49
295.52	1198.06
295.73	1183.73
295.95	1210.35
296.16	1271.79
296.37	1245.16
296.59	1153.01
296.80	1191.92
297.01	1234.93
297.22	1210.35
297.44	1259.50
297.65	1202.16
297.86	1171.44
298.08	1216.49
298.29	1175.53
298.50	1247.21
298.71	1247.21
298.93	1241.07
299.14	1218.54
299.35	1282.03
299.56	1275.88
299.78	1226.73
299.99	1243.12
300.20	1257.45
300.42	1214.45
300.63	1284.08
300.84	1245.16
301.05	1171.44
301.27	1212.40
301.48	1234.93
301.69	1322.99
301.90	1196.01
302.12	1230.83
302.33	1171.44
302.54	1210.35
302.75	1249.26
302.97	1210.35
303.18	1224.69
303.39	1241.07
303.60	1234.93
303.82	1273.84
304.03	1251.31
304.24	1273.84
304.45	1232.88
304.67	1200.11
304.88	1279.98
305.09	1208.30
305.30	1232.88
305.52	1224.69
305.73	1275.88
305.94	1198.06
306.15	1265.64
306.37	1284.08
306.58	1251.31
306.79	1198.06
307.00	1263.60
307.22	1249.26
307.43	1245.16
307.64	1173.49
307.85	1255.40
308.06	1241.07
308.28	1218.54
308.49	1196.01
308.70	1228.78
308.91	1183.73
309.13	1275.88
309.34	1241.07
309.55	1249.26
309.76	1314.80
309.97	1216.49
310.19	1236.97
310.40	1267.69
310.61	1218.54
310.82	1243.12
311.04	1169.39
311.25	1267.69
311.46	1198.06
311.67	1216.49
311.88	1257.45
312.10	1269.74
312.31	1226.73
312.52	1196.01
312.73	1204.21
312.94	1169.39
313.16	1226.73
313.37	1148.91
313.58	1218.54
313.79	1255.40
314.00	1257.45
314.22	1249.26
314.43	1204.21
314.64	1198.06
314.85	1224.69
315.06	1234.93
315.27	1247.21
315.49	1155.05
315.70	1265.64
315.91	1179.63
316.12	1208.30
316.33	1200.11
316.55	1222.64
316.76	1284.08
316.97	1230.83
317.18	1204.21
317.39	1253.36
317.60	1255.40
317.82	1208.30
318.03	1269.74
318.24	1165.29
318.45	1247.21
318.66	1314.80
318.88	1214.45
319.09	1259.50
319.30	1245.16
319.51	1234.93
319.72	1198.06
319.93	1136.62
320.15	1269.74
320.36	1232.88
320.57	1239.02
320.78	1249.26
320.99	1282.03
321.20	1257.45
321.41	1230.83
321.63	1175.53
321.84	1202.16
322.05	1230.83
322.26	1261.55
322.47	1226.73
322.68	1251.31
322.90	1306.60
323.11	1214.45
323.32	1202.16
323.53	1255.40
323.74	1267.69
323.95	1228.78
324.16	1269.74
324.38	1255.40
324.59	1279.98
324.80	1171.44
325.01	1187.82
325.22	1214.45
325.43	1200.11
325.64	1265.64
325.85	1198.06
326.07	1249.26
326.28	1202.16
326.49	1185.77
326.70	1202.16
326.91	1228.78
327.12	1193.97
327.33	1214.45
327.54	1187.82
327.76	1208.30
327.97	1228.78
328.18	1257.45
328.39	1204.21
328.60	1273.84
328.81	1273.84
329.02	1204.21
329.23	1265.64
329.45	1275.88
329.66	1222.64
329.87	1212.40
330.08	1220.59
330.29	1189.87
330.50	1284.08
330.71	1230.83
330.92	1261.55
331.13	1206.25
331.34	1200.11
331.56	1257.45
331.77	1234.93
331.98	1257.45
332.19	1239.02
332.40	1196.01
332.61	1275.88
332.82	1236.97
333.03	1253.36
333.24	1173.49
333.45	1234.93
333.67	1239.02
333.88	1185.77
334.09	1183.73
334.30	1271.79
334.51	1241.07
334.72	1161.20
334.93	1216.49
335.14	1226.73
335.35	1220.59
335.56	1210.35
335.77	1243.12
335.98	1282.03
336.19	1193.97
336.41	1263.60
336.62	1245.16
336.83	1220.59
337.04	1263.60
337.25	1210.35
337.46	1226.73
337.67	1259.50
337.88	1236.97
338.09	1249.26
338.30	1255.40
338.51	1245.16
338.72	1247.21
338.93	1241.07
339.14	1214.45
339.35	1206.25
339.57	1202.16
339.78	1241.07
339.99	1181.68
340.20	1187.82
340.41	1284.08
340.62	1247.21
340.83	1275.88
341.04	1126.38
341.25	1181.68
341.46	1198.06
341.67	1206.25
341.88	1267.69
342.09	1257.45
342.30	1210.35
342.51	1159.15
342.72	1236.97
342.93	1271.79
343.14	1183.73
343.35	1234.93
343.56	1286.12
343.77	1277.93
343.98	1220.59
344.19	1269.74
344.41	1251.31
344.62	1265.64
344.83	1232.88
345.04	1308.65
345.25	1159.15
345.46	1247.21
345.67	1239.02
345.88	1191.92
346.09	1200.11
346.30	1257.45
346.51	1257.45
346.72	1204.21
346.93	1259.50
347.14	1318.89
347.35	1241.07
347.56	1206.25
347.77	1210.35
347.98	1157.10
348.19	1214.45
348.40	1134.57
348.61	1214.45
348.82	1236.97
349.03	1165.29
349.24	1224.69
349.45	1263.60
349.66	1282.03
349.87	1198.06
350.08	1196.01
350.29	1239.02
350.50	1198.06
350.71	1263.60
350.92	1239.02
351.13	1265.64
351.34	1224.69
351.55	1204.21
351.76	1290.22
351.97	1255.40
352.18	1257.45
352.39	1230.83
352.60	1189.87
352.81	1216.49
353.02	1306.60
353.23	1177.58
353.44	1271.79
353.65	1216.49
353.86	1308.65
354.07	1243.12
354.28	1314.80
354.49	1236.97
354.70	1200.11
354.90	1220.59
355.11	1189.87
355.32	1243.12
355.53	1239.02
355.74	1165.29
355.95	1261.55
356.16	1208.30
356.37	1234.93
356.58	1144.81
356.79	1253.36
357.00	1171.44
357.21	1206.25
357.42	1171.44
357.63	1249.26
357.84	1277.93
358.05	1214.45
358.26	1230.83
358.47	1288.17
358.68	1218.54
358.89	1294.32
359.10	1222.64
359.31	1177.58
359.52	1198.06
359.73	1214.45
359.93	1189.87
360.14	1236.97
360.35	1239.02
360.56	1269.74
360.77	1206.25
360.98	1185.77
361.19	1236.97
361.40	1269.74
361.61	1241.07
361.82	1236.97
362.03	1286.12
362.24	1216.49
362.45	1198.06
362.66	1314.80
362.87	1171.44
363.07	1220.59
363.28	1302.51
363.49	1153.01
363.70	1239.02
363.91	1220.59
364.12	1177.58
364.33	1196.01
364.54	1236.97
364.75	1239.02
364.96	1216.49
365.17	1208.30
365.38	1142.77
365.58	1181.68
365.79	1210.35
366.00	1206.25
366.21	1183.73
366.42	1189.87
366.63	1218.54
366.84	1234.93
367.05	1210.35
367.26	1271.79
367.47	1204.21
367.67	1232.88
367.88	1212.40
368.09	1249.26
368.30	1214.45
368.51	1318.89
368.72	1273.84
368.93	1206.25
369.14	1226.73
369.35	1275.88
369.56	1259.50
369.76	1222.64
369.97	1232.88
370.18	1236.97
370.39	1228.78
370.60	1249.26
370.81	1208.30
371.02	1230.83
371.23	1243.12
371.43	1148.91
371.64	1193.97
371.85	1243.12
372.06	1124.33
372.27	1234.93
372.48	1224.69
372.69	1275.88
372.90	1216.49
373.10	1220.59
373.31	1230.83
373.52	1189.87
373.73	1196.01
373.94	1263.60
374.15	1253.36
374.36	1232.88
374.56	1245.16
374.77	1224.69
374.98	1214.45
375.19	1216.49
375.40	1220.59
375.61	1247.21
375.82	1232.88
376.02	1146.86
376.23	1224.69
376.44	1196.01
376.65	1261.55
376.86	1247.21
377.07	1153.01
377.28	1257.45
377.48	1200.11
377.69	1226.73
377.90	1212.40
378.11	1245.16
378.32	1200.11
378.53	1261.55
378.73	1181.68
378.94	1150.96
379.15	1218.54
379.36	1228.78
379.57	1236.97
379.78	1167.34
379.98	1208.30
380.19	1208.30
380.40	1204.21
380.61	1206.25
380.82	1202.16
381.03	1310.70
381.23	1263.60
381.44	1255.40
381.65	1198.06
381.86	1169.39
382.07	1236.97
382.27	1206.25
382.48	1216.49
382.69	1234.93
382.90	1257.45
383.11	1239.02
383.32	1171.44
383.52	1243.12
383.73	1218.54
383.94	1208.30
384.15	1167.34
384.36	1153.01
384.56	1290.22
384.77	1130.48
384.98	1255.40
385.19	1251.31
385.40	1187.82
385.60	1228.78
385.81	1204.21
386.02	1230.83
386.23	1185.77
386.43	1224.69
386.64	1267.69
386.85	1163.25
387.06	1167.34
387.27	1198.06
387.47	1198.06
387.68	1284.08
387.89	1284.08
388.10	1161.20
388.31	1273.84
388.51	1261.55
388.72	1200.11
388.93	1226.73
389.14	1275.88
389.34	1232.88
389.55	1343.47
389.76	1224.69
389.97	1263.60
390.18	1286.12
390.38	1245.16
390.59	1208.30
390.80	1234.93
391.01	1284.08
391.21	1277.93
391.42	1245.16
391.63	1277.93
391.84	1214.45
392.04	1255.40
392.25	1275.88
392.46	1189.87
392.67	1253.36
392.87	1191.92
393.08	1236.97
393.29	1202.16
393.50	1228.78
393.70	1173.49
393.91	1196.01
394.12	1165.29
394.33	1220.59
394.53	1247.21
394.74	1236.97
394.95	1206.25
395.16	1282.03
395.36	1261.55
395.57	1247.21
395.78	1200.11
395.99	1239.02
396.19	1163.25
396.40	1259.50
396.61	1247.21
396.81	1185.77
397.02	1200.11
397.23	1267.69
397.44	1239.02
397.64	1222.64
397.85	1165.29
398.06	1208.30
398.27	1124.33
398.47	1265.64
398.68	1206.25
398.89	1222.64
399.09	1169.39
399.30	1126.38
399.51	1216.49
399.72	1253.36
399.92	1173.49
400.13	1167.34
400.34	1193.97
400.54	1282.03
400.75	1255.40
400.96	1224.69
401.17	1222.64
401.37	1253.36
401.58	1171.44
401.79	1245.16
401.99	1191.92
402.20	1255.40
402.41	1253.36
402.61	1236.97
402.82	1222.64
403.03	1216.49
403.24	1183.73
403.44	1247.21
403.65	1255.40
403.86	1243.12
404.06	1208.30
404.27	1261.55
404.48	1230.83
404.68	1267.69
404.89	1265.64
405.10	1173.49
405.30	1218.54
405.51	1255.40
405.72	1210.35
405.92	1259.50
406.13	1136.62
406.34	1290.22
406.54	1173.49
406.75	1191.92
406.96	1216.49
407.16	1146.86
407.37	1224.69
407.58	1257.45
407.78	1212.40
407.99	1253.36
408.20	1204.21
408.40	1284.08
408.61	1204.21
408.82	1220.59
409.02	1271.79
409.23	1298.41
409.44	1312.75
409.64	1218.54
409.85	1169.39
410.06	1296.36
410.26	1306.60
410.47	1302.51
410.68	1253.36
410.88	1210.35
411.09	1220.59
411.30	1239.02
411.50	1261.55
411.71	1212.40
411.91	1222.64
412.12	1261.55
412.33	1224.69
412.53	1179.63
412.74	1206.25
412.95	1282.03
413.15	1193.97
413.36	1173.49
413.57	1234.93
413.77	1267.69
413.98	1230.83
414.18	1214.45
414.39	1263.60
414.60	1265.64
414.80	1171.44
415.01	1241.07
415.22	1249.26
415.42	1282.03
415.63	1259.50
415.83	1249.26
416.04	1175.53
416.25	1236.97
416.45	1265.64
416.66	1288.17
416.86	1273.84
417.07	1228.78
417.28	1220.59
417.48	1257.45
417.69	1267.69
417.89	1157.10
418.10	1226.73
418.31	1249.26
418.51	1234.93
418.72	1267.69
418.92	1167.34
419.13	1275.88
419.34	1243.12
419.54	1214.45
419.75	1187.82
419.95	1273.84
420.16	1228.78
420.37	1216.49
420.57	1183.73
420.78	1292.27
420.98	1300.46
421.19	1253.36
421.40	1198.06
421.60	1214.45
421.81	1245.16
422.01	1179.63
422.22	1251.31
422.42	1204.21
422.63	1193.97
422.84	1222.64
423.04	1198.06
423.25	1243.12
423.45	1230.83
423.66	1165.29
423.86	1234.93
424.07	1251.31
424.28	1226.73
424.48	1267.69
424.69	1232.88
424.89	1218.54
425.10	1173.49
425.30	1253.36
425.51	1206.25
425.72	1216.49
425.92	1247.21
426.13	1208.30
426.33	1165.29
426.54	1265.64
426.74	1212.40
426.95	1302.51
427.15	1253.36
427.36	1208.30
427.56	1277.93
427.77	1198.06
427.98	1267.69
428.18	1214.45
428.39	1214.45
428.59	1216.49
428.80	1181.68
429.00	1273.84
429.21	1157.10
429.41	1253.36
429.62	1271.79
429.82	1230.83
430.03	1214.45
430.23	1179.63
430.44	1220.59
430.65	1300.46
430.85	1175.53
431.06	1157.10
431.26	1187.82
431.47	1177.58
431.67	1193.97
431.88	1257.45
432.08	1177.58
432.29	1230.83
432.49	1198.06
432.70	1253.36
432.90	1208.30
433.11	1239.02
433.31	1243.12
433.52	1216.49
433.72	1247.21
433.93	1265.64
434.13	1220.59
434.34	1269.74
434.54	1228.78
434.75	1263.60
434.95	1216.49
435.16	1318.89
435.36	1175.53
435.57	1212.40
435.77	1212.40
435.98	1251.31
436.18	1120.24
436.39	1251.31
436.59	1175.53
436.80	1228.78
437.00	1249.26
437.21	1259.50
437.41	1241.07
437.62	1228.78
437.82	1253.36
438.03	1222.64
438.23	1189.87
438.44	1210.35
438.64	1208.30
438.85	1216.49
439.05	1173.49
439.25	1226.73
439.46	1249.26
439.66	1249.26
439.87	1239.02
440.07	1216.49
440.28	1265.64
440.48	1251.31
440.69	1226.73
440.89	1187.82
441.10	1177.58
441.30	1230.83
441.51	1155.05
441.71	1214.45
441.92	1245.16
442.12	1322.99
442.32	1251.31
442.53	1173.49
442.73	1261.55
442.94	1245.16
443.14	1261.55
443.35	1232.88
443.55	1267.69
443.76	1228.78
443.96	1224.69
444.16	1226.73
444.37	1222.64
444.57	1159.15
444.78	1290.22
444.98	1198.06
445.19	1267.69
445.39	1239.02
445.60	1253.36
445.80	1249.26
446.00	1183.73
446.21	1212.40
446.41	1189.87
446.62	1204.21
446.82	1198.06
447.03	1202.16
447.23	1181.68
447.43	1228.78
447.64	1196.01
447.84	1200.11
448.05	1214.45
448.25	1232.88
448.45	1241.07
448.66	1265.64
448.86	1191.92
449.07	1269.74
449.27	1267.69
449.48	1228.78
449.68	1226.73
449.88	1173.49
450.09	1214.45
450.29	1214.45
450.50	1236.97
450.70	1257.45
450.90	1163.25
451.11	1206.25
451.31	1167.34
451.52	1198.06
451.72	1222.64
451.92	1275.88
452.13	1234.93
452.33	1130.48
452.54	1257.45
452.74	1202.16
452.94	1150.96
453.15	1263.60
453.35	1212.40
453.55	1296.36
453.76	1294.32
453.96	1206.25
454.17	1234.93
454.37	1228.78
454.57	1263.60
454.78	1208.30
454.98	1247.21
455.19	1247.21
455.39	1171.44
455.59	1234.93
455.80	1183.73
456.00	1290.22
456.20	1232.88
456.41	1294.32
456.61	1265.64
456.81	1210.35
457.02	1230.83
457.22	1245.16
457.43	1179.63
457.63	1232.88
457.83	1267.69
458.04	1245.16
458.24	1222.64
458.44	1247.21
458.65	1220.59
458.85	1241.07
459.05	1198.06
459.26	1206.25
459.46	1241.07
459.66	1320.94
459.87	1196.01
460.07	1247.21
460.27	1208.30
460.48	1265.64
460.68	1322.99
460.88	1171.44
461.09	1159.15
461.29	1259.50
461.49	1271.79
461.70	1236.97
461.90	1187.82
462.10	1177.58
462.31	1187.82
462.51	1191.92
462.71	1249.26
462.92	1234.93
463.12	1181.68
463.32	1284.08
463.53	1247.21
463.73	1261.55
463.93	1175.53
464.14	1165.29
464.34	1198.06
464.54	1236.97
464.75	1198.06
464.95	1169.39
465.15	1286.12
465.36	1189.87
465.56	1304.56
465.76	1167.34
465.96	1249.26
466.17	1230.83
466.37	1239.02
466.57	1253.36
466.78	1218.54
466.98	1191.92
467.18	1208.30
467.39	1134.57
467.59	1224.69
467.79	1214.45
467.99	1251.31
468.20	1210.35
468.40	1232.88
468.60	1206.25
468.81	1212.40
469.01	1304.56
469.21	1146.86
469.41	1189.87
469.62	1259.50
469.82	1226.73
470.02	1167.34
470.23	1263.60
470.43	1255.40
470.63	1177.58
470.83	1290.22
471.04	1257.45
471.24	1196.01
471.44	1234.93
471.65	1214.45
471.85	1200.11
472.05	1181.68
472.25	1234.93
472.46	1243.12
472.66	1220.59
472.86	1206.25
473.06	1273.84
473.27	1322.99
473.47	1222.64
473.67	1239.02
473.87	1214.45
474.08	1167.34
474.28	1279.98
474.48	1202.16
474.68	1241.07
474.89	1214.45
475.09	1263.60
475.29	1226.73
475.49	1159.15
475.70	1167.34
475.90	1196.01
476.10	1234.93
476.30	1239.02
476.51	1257.45
476.71	1222.64
476.91	1196.01
477.11	1228.78
477.32	1185.77
477.52	1216.49
477.72	1234.93
477.92	1232.88
478.12	1214.45
478.33	1241.07
478.53	1236.97
478.73	1300.46
478.93	1239.02
479.14	1275.88
479.34	1200.11
479.54	1300.46
479.74	1251.31
479.94	1189.87
480.15	1189.87
480.35	1159.15
480.55	1294.32
480.75	1241.07
480.96	1175.53
481.16	1257.45
481.36	1181.68
481.56	1183.73
481.76	1234.93
481.97	1286.12
482.17	1216.49
482.37	1157.10
482.57	1269.74
482.77	1208.30
482.98	1236.97
483.18	1279.98
483.38	1259.50
483.58	1163.25
483.78	1247.21
483.98	1163.25
484.19	1300.46
484.39	1247.21
484.59	1183.73
484.79	1167.34
484.99	1204.21
485.20	1222.64
485.40	1228.78
485.60	1251.31
485.80	1296.36
486.00	1277.93
486.20	1230.83
486.41	1267.69
486.61	1191.92
486.81	1175.53
487.01	1226.73
487.21	1331.18
487.42	1259.50
487.62	1302.51
487.82	1249.26
488.02	1183.73
488.22	1265.64
488.42	1222.64
488.62	1232.88
488.83	1290.22
489.03	1288.17
489.23	1183.73
489.43	1208.30
489.63	1212.40
489.83	1284.08
490.04	1239.02
490.24	1198.06
490.44	1251.31
490.64	1208.30
490.84	1220.59
491.04	1185.77
491.24	1144.81
491.45	1288.17
491.65	1140.72
491.85	1181.68
492.05	1189.87
492.25	1202.16
492.45	1226.73
492.65	1245.16
492.86	1167.34
493.06	1284.08
493.26	1216.49
493.46	1159.15
493.66	1251.31
493.86	1271.79
494.06	1275.88
494.26	1206.25
494.47	1216.49
494.67	1234.93
494.87	1255.40
495.07	1200.11
495.27	1234.93
495.47	1263.60
495.67	1247.21
495.87	1208.30
496.07	1308.65
496.28	1292.27
496.48	1255.40
496.68	1273.84
496.88	1269.74
497.08	1284.08
497.28	1290.22
497.48	1234.93
497.68	1222.64
497.88	1245.16
498.08	1220.59
498.29	1288.17
498.49	1282.03
498.69	1216.49
498.89	1218.54
499.09	1191.92
499.29	1230.83
499.49	1193.97
499.69	1193.97
499.89	1234.93
500.09	1288.17
500.29	1269.74
500.50	1247.21
500.70	1259.50
500.90	1224.69
501.10	1261.55
501.30	1226.73
501.50	1241.07
501.70	1187.82
501.90	1155.05
502.10	1288.17
502.30	1220.59
502.50	1171.44
502.70	1277.93
502.90	1228.78
503.10	1185.77
503.31	1185.77
503.51	1261.55
503.71	1288.17
503.91	1261.55
504.11	1187.82
504.31	1196.01
504.51	1234.93
504.71	1163.25
504.91	1181.68
505.11	1243.12
505.31	1226.73
505.51	1263.60
505.71	1204.21
505.91	1198.06
506.11	1175.53
506.31	1181.68
506.51	1206.25
506.71	1220.59
506.91	1243.12
507.11	1251.31
507.31	1261.55
507.51	1279.98
507.72	1228.78
507.92	1153.01
508.12	1161.20
508.32	1191.92
508.52	1212.40
508.72	1230.83
508.92	1243.12
509.12	1247.21
509.32	1259.50
509.52	1224.69
509.72	1214.45
509.92	1245.16
510.12	1208.30
510.32	1284.08
510.52	1249.26
510.72	1191.92
510.92	1200.11
511.12	1177.58
511.32	1245.16
511.52	1236.97
511.72	1179.63
511.92	1222.64
512.12	1241.07
512.32	1202.16
512.52	1193.97
512.72	1191.92
512.92	1230.83
513.12	1206.25
513.32	1308.65
513.52	1189.87
513.72	1232.88
513.92	1185.77
514.12	1255.40
514.32	1212.40
514.52	1253.36
514.72	1202.16
514.92	1294.32
515.12	1257.45
515.32	1296.36
515.52	1198.06
515.72	1181.68
515.92	1267.69
516.12	1146.86
516.32	1234.93
516.52	1165.29
516.72	1230.83
516.92	1265.64
517.12	1173.49
517.32	1208.30
517.51	1226.73
517.71	1177.58
517.91	1196.01
518.11	1165.29
518.31	1181.68
518.51	1282.03
518.71	1259.50
518.91	1241.07
519.11	1208.30
519.31	1282.03
519.51	1253.36
519.71	1261.55
519.91	1212.40
520.11	1257.45
520.31	1216.49
520.51	1181.68
520.71	1222.64
520.91	1255.40
521.11	1167.34
521.31	1214.45
521.51	1243.12
521.70	1204.21
521.90	1167.34
522.10	1232.88
522.30	1232.88
522.50	1239.02
522.70	1202.16
522.90	1200.11
523.10	1196.01
523.30	1267.69
523.50	1255.40
523.70	1189.87
523.90	1226.73
524.10	1212.40
524.30	1196.01
524.49	1253.36
524.69	1275.88
524.89	1292.27
525.09	1232.88
525.29	1153.01
525.49	1177.58
525.69	1228.78
525.89	1232.88
526.09	1247.21
526.29	1206.25
526.49	1200.11
526.68	1230.83
526.88	1232.88
527.08	1286.12
527.28	1191.92
527.48	1279.98
527.68	1204.21
527.88	1165.29
528.08	1322.99
528.28	1263.60
528.48	1265.64
528.67	1232.88
528.87	1257.45
529.07	1173.49
529.27	1245.16
529.47	1214.45
529.67	1228.78
529.87	1222.64
530.07	1300.46
530.26	1200.11
530.46	1241.07
530.66	1239.02
530.86	1212.40
531.06	1204.21
531.26	1228.78
531.46	1269.74
531.66	1218.54
531.85	1206.25
532.05	1218.54
532.25	1208.30
532.45	1269.74
532.65	1245.16
532.85	1181.68
533.05	1230.83
533.25	1198.06
533.44	1193.97
533.64	1236.97
533.84	1228.78
534.04	1200.11
534.24	1210.35
534.44	1241.07
534.63	1255.40
534.83	1298.41
535.03	1333.23
535.23	1171.44
535.43	1210.35
535.63	1234.93
535.83	1234.93
536.02	1214.45
536.22	1208.30
536.42	1236.97
536.62	1191.92
536.82	1292.27
537.02	1275.88
537.21	1263.60
537.41	1257.45
537.61	1208.30
537.81	1226.73
538.01	1292.27
538.21	1191.92
538.40	1185.77
538.60	1255.40
538.80	1302.51
539.00	1306.60
539.20	1366.00
539.39	1259.50
539.59	1310.70
539.79	1292.27
539.99	1245.16
540.19	1308.65
540.39	1327.08
540.58	1359.85
540.78	1325.04
540.98	1374.19
541.18	1335.28
541.38	1411.05
541.57	1443.82
541.77	1329.13
541.97	1406.95
542.17	1394.67
542.37	1437.67
542.56	1431.53
542.76	1417.19
542.96	1427.43
543.16	1400.81
543.35	1443.82
543.55	1429.48
543.75	1425.39
543.95	1435.63
544.15	1411.05
544.34	1429.48
544.54	1421.29
544.74	1492.97
544.94	1511.40
545.14	1384.43
545.33	1476.59
545.53	1411.05
545.73	1400.81
545.93	1370.09
546.12	1380.33
546.32	1409.00
546.52	1417.19
546.72	1302.51
546.91	1320.94
547.11	1300.46
547.31	1374.19
547.51	1378.28
547.70	1279.98
547.90	1263.60
548.10	1257.45
548.30	1347.56
548.50	1355.76
548.69	1290.22
548.89	1251.31
549.09	1230.83
549.29	1286.12
549.48	1357.80
549.68	1257.45
549.88	1322.99
550.07	1353.71
550.27	1357.80
550.47	1243.12
550.67	1290.22
550.86	1263.60
551.06	1327.08
551.26	1284.08
551.46	1378.28
551.65	1322.99
551.85	1284.08
552.05	1232.88
552.25	1306.60
552.44	1294.32
552.64	1261.55
552.84	1335.28
553.03	1204.21
553.23	1320.94
553.43	1282.03
553.63	1183.73
553.82	1179.63
554.02	1265.64
554.22	1161.20
554.41	1224.69
554.61	1204.21
554.81	1279.98
555.01	1189.87
555.20	1224.69
555.40	1241.07
555.60	1265.64
555.79	1249.26
555.99	1290.22
556.19	1239.02
556.38	1208.30
556.58	1249.26
556.78	1249.26
556.98	1189.87
557.17	1269.74
557.37	1222.64
557.57	1206.25
557.76	1253.36
557.96	1288.17
558.16	1243.12
558.35	1222.64
558.55	1220.59
558.75	1206.25
558.94	1263.60
559.14	1241.07
559.34	1265.64
559.53	1191.92
559.73	1239.02
559.93	1239.02
560.12	1212.40
560.32	1144.81
560.52	1216.49
560.71	1239.02
560.91	1208.30
561.11	1329.13
561.30	1249.26
561.50	1239.02
561.70	1275.88
561.89	1206.25
562.09	1269.74
562.29	1306.60
562.48	1181.68
562.68	1249.26
562.88	1253.36
563.07	1210.35
563.27	1189.87
563.47	1241.07
563.66	1300.46
563.86	1234.93
564.06	1232.88
564.25	1243.12
564.45	1294.32
564.64	1206.25
564.84	1206.25
565.04	1265.64
565.23	1222.64
565.43	1214.45
565.63	1271.79
565.82	1253.36
566.02	1234.93
566.22	1265.64
566.41	1308.65
566.61	1189.87
566.80	1261.55
567.00	1171.44
567.20	1218.54
567.39	1224.69
567.59	1155.05
567.78	1198.06
567.98	1298.41
568.18	1183.73
568.37	1245.16
568.57	1189.87
568.77	1177.58
568.96	1249.26
569.16	1279.98
569.35	1212.40
569.55	1200.11
569.75	1230.83
569.94	1255.40
570.14	1298.41
570.33	1218.54
570.53	1181.68
570.73	1263.60
570.92	1196.01
571.12	1236.97
571.31	1228.78
571.51	1230.83
571.71	1241.07
571.90	1204.21
572.10	1247.21
572.29	1214.45
572.49	1181.68
572.68	1232.88
572.88	1271.79
573.08	1269.74
573.27	1239.02
573.47	1220.59
573.66	1200.11
573.86	1245.16
574.05	1253.36
574.25	1167.34
574.45	1220.59
574.64	1234.93
574.84	1249.26
575.03	1284.08
575.23	1220.59
575.42	1204.21
575.62	1310.70
575.82	1230.83
576.01	1271.79
576.21	1271.79
576.40	1202.16
576.60	1267.69
576.79	1220.59
576.99	1312.75
577.18	1193.97
577.38	1290.22
577.57	1259.50
577.77	1337.32
577.97	1228.78
578.16	1222.64
578.36	1269.74
578.55	1345.52
578.75	1279.98
578.94	1245.16
579.14	1292.27
579.33	1286.12
579.53	1294.32
579.72	1337.32
579.92	1239.02
580.11	1257.45
580.31	1316.84
580.50	1294.32
580.70	1329.13
580.90	1329.13
581.09	1273.84
581.29	1306.60
581.48	1339.37
581.68	1310.70
581.87	1290.22
582.07	1359.85
582.26	1277.93
582.46	1236.97
582.65	1265.64
582.85	1308.65
583.04	1339.37
583.24	1304.56
583.43	1343.47
583.63	1296.36
583.82	1277.93
584.02	1294.32
584.21	1226.73
584.41	1310.70
584.60	1261.55
584.80	1247.21
584.99	1218.54
585.19	1253.36
585.38	1271.79
585.58	1273.84
585.77	1347.56
585.97	1343.47
586.16	1288.17
586.35	1269.74
586.55	1290.22
586.74	1325.04
586.94	1282.03
587.13	1345.52
587.33	1279.98
587.52	1267.69
587.72	1349.61
587.91	1239.02
588.11	1322.99
588.30	1286.12
588.50	1279.98
588.69	1259.50
588.89	1279.98
589.08	1273.84
589.28	1318.89
589.47	1253.36
589.66	1218.54
589.86	1271.79
590.05	1361.90
590.25	1296.36
590.44	1320.94
590.64	1206.25
590.83	1347.56
591.03	1202.16
591.22	1306.60
591.41	1253.36
591.61	1230.83
591.80	1339.37
592.00	1228.78
592.19	1329.13
592.39	1241.07
592.58	1220.59
592.78	1343.47
592.97	1282.03
593.16	1220.59
593.36	1339.37
593.55	1208.30
593.75	1294.32
593.94	1216.49
594.14	1277.93
594.33	1200.11
594.52	1265.64
594.72	1308.65
594.91	1228.78
595.11	1282.03
595.30	1202.16
595.49	1269.74
595.69	1271.79
595.88	1275.88
596.08	1228.78
596.27	1212.40
596.47	1290.22
596.66	1239.02
596.85	1288.17
597.05	1224.69
597.24	1243.12
597.44	1259.50
597.63	1253.36
597.82	1265.64
598.02	1341.42
598.21	1290.22
598.40	1292.27
598.60	1275.88
598.79	1243.12
598.99	1279.98
599.18	1298.41
599.37	1265.64
599.57	1310.70
599.76	1198.06
599.96	1245.16
600.15	1216.49
600.34	1228.78
600.54	1251.31
600.73	1214.45
600.92	1228.78
601.12	1210.35
601.31	1196.01
601.51	1191.92
601.70	1300.46
601.89	1247.21
602.09	1222.64
602.28	1282.03
602.47	1257.45
602.67	1247.21
602.86	1279.98
603.05	1249.26
603.25	1241.07
603.44	1263.60
603.63	1251.31
603.83	1206.25
604.02	1230.83
604.22	1298.41
604.41	1255.40
604.60	1185.77
604.80	1245.16
604.99	1277.93
605.18	1271.79
605.38	1169.39
605.57	1251.31
605.76	1271.79
605.96	1263.60
606.15	1271.79
606.34	1251.31
606.54	1232.88
606.73	1241.07
606.92	1255.40
607.12	1261.55
607.31	1261.55
607.50	1294.32
607.70	1306.60
607.89	1341.42
608.08	1271.79
608.28	1234.93
608.47	1277.93
608.66	1261.55
608.85	1284.08
609.05	1290.22
609.24	1255.40
609.43	1339.37
609.63	1419.24
609.82	1357.80
610.01	1392.62
610.21	1468.39
610.40	1466.35
610.59	1431.53
610.79	1505.26
610.98	1437.67
611.17	1404.91
611.36	1449.96
611.56	1392.62
611.75	1454.06
611.94	1300.46
612.14	1388.52
612.33	1357.80
612.52	1333.23
612.71	1353.71
612.91	1394.67
613.10	1333.23
613.29	1282.03
613.49	1296.36
613.68	1361.90
613.87	1314.80
614.06	1318.89
614.26	1273.84
614.45	1286.12
614.64	1255.40
614.83	1189.87
615.03	1273.84
615.22	1261.55
615.41	1263.60
615.60	1245.16
615.80	1327.08
615.99	1366.00
616.18	1175.53
616.38	1196.01
616.57	1224.69
616.76	1275.88
616.95	1224.69
617.15	1294.32
617.34	1187.82
617.53	1224.69
617.72	1243.12
617.92	1241.07
618.11	1175.53
618.30	1198.06
618.49	1228.78
618.68	1228.78
618.88	1222.64
619.07	1226.73
619.26	1273.84
619.45	1243.12
619.65	1255.40
619.84	1228.78
620.03	1316.84
620.22	1269.74
620.42	1198.06
620.61	1245.16
620.80	1267.69
620.99	1228.78
621.18	1241.07
621.38	1269.74
621.57	1241.07
621.76	1279.98
621.95	1257.45
622.15	1208.30
622.34	1277.93
622.53	1245.16
622.72	1286.12
622.91	1206.25
623.11	1232.88
623.30	1224.69
623.49	1263.60
623.68	1200.11
623.87	1236.97
624.07	1241.07
624.26	1286.12
624.45	1286.12
624.64	1173.49
624.83	1257.45
625.03	1212.40
625.22	1220.59
625.41	1236.97
625.60	1310.70
625.79	1279.98
625.98	1253.36
626.18	1269.74
626.37	1286.12
626.56	1230.83
626.75	1253.36
626.94	1212.40
627.14	1318.89
627.33	1191.92
627.52	1234.93
627.71	1269.74
627.90	1275.88
628.09	1296.36
628.29	1236.97
628.48	1171.44
628.67	1357.80
628.86	1226.73
629.05	1191.92
629.24	1206.25
629.43	1261.55
629.63	1349.61
629.82	1193.97
630.01	1228.78
630.20	1243.12
630.39	1189.87
630.58	1218.54
630.78	1294.32
630.97	1234.93
631.16	1234.93
631.35	1257.45
631.54	1261.55
631.73	1202.16
631.92	1224.69
632.11	1286.12
632.31	1202.16
632.50	1302.51
632.69	1234.93
632.88	1226.73
633.07	1218.54
633.26	1181.68
633.45	1173.49
633.65	1243.12
633.84	1126.38
634.03	1257.45
634.22	1222.64
634.41	1239.02
634.60	1208.30
634.79	1216.49
634.98	1208.30
635.17	1191.92
635.37	1196.01
635.56	1228.78
635.75	1214.45
635.94	1249.26
636.13	1245.16
636.32	1241.07
636.51	1243.12
636.70	1310.70
636.89	1279.98
637.08	1196.01
637.28	1253.36
637.47	1187.82
637.66	1208.30
637.85	1173.49
638.04	1249.26
638.23	1228.78
638.42	1191.92
638.61	1277.93
638.80	1183.73
638.99	1169.39
639.18	1286.12
639.38	1171.44
639.57	1206.25
639.76	1241.07
639.95	1263.60
640.14	1259.50
640.33	1298.41
640.52	1279.98
640.71	1228.78
640.90	1259.50
641.09	1271.79
641.28	1196.01
641.47	1290.22
641.66	1228.78
641.85	1167.34
642.04	1216.49
642.24	1224.69
642.43	1271.79
642.62	1609.70
642.81	1200.11
643.00	1167.34
643.19	1185.77
643.38	1239.02
643.57	1218.54
643.76	1261.55
643.95	1271.79
644.14	1267.69
644.33	1292.27
644.52	1343.47
644.71	1273.84
644.90	1198.06
645.09	1210.35
645.28	1249.26
645.47	1208.30
645.66	1282.03
645.85	1294.32
646.04	1245.16
646.23	1198.06
646.42	1177.58
646.61	1220.59
646.80	1245.16
646.99	1204.21
647.18	1267.69
647.37	1198.06
647.56	1273.84
647.75	1198.06
647.95	1220.59
648.14	1300.46
648.33	1247.21
648.52	1322.99
648.71	1177.58
648.90	1277.93
649.09	1226.73
649.28	1271.79
649.47	1257.45
649.66	1204.21
649.85	1165.29
650.04	1304.56
650.23	1277.93
650.42	1247.21
650.61	1196.01
650.79	1218.54
650.98	1271.79
651.17	1185.77
651.36	1218.54
651.55	1212.40
651.74	1206.25
651.93	1206.25
652.12	1318.89
652.31	1230.83
652.50	1177.58
652.69	1308.65
652.88	1179.63
653.07	1265.64
653.26	1232.88
653.45	1214.45
653.64	1200.11
653.83	1212.40
654.02	1245.16
654.21	1236.97
654.40	1257.45
654.59	1265.64
654.78	1153.01
654.97	1214.45
655.16	1214.45
655.35	1202.16
655.54	1243.12
655.73	1265.64
655.92	1257.45
656.11	1230.83
656.30	1226.73
656.48	1191.92
656.67	1239.02
656.86	1253.36
657.05	1226.73
657.24	1185.77
657.43	1220.59
657.62	1165.29
657.81	1210.35
658.00	1255.40
658.19	1247.21
658.38	1220.59
658.57	1286.12
658.76	1322.99
658.95	1236.97
659.13	1241.07
659.32	1200.11
659.51	1228.78
659.70	1222.64
659.89	1257.45
660.08	1196.01
660.27	1128.43
660.46	1214.45
660.65	1196.01
660.84	1228.78
661.03	1196.01
661.22	1216.49
661.40	1247.21
661.59	1146.86
661.78	1234.93
661.97	1206.25
662.16	1193.97
662.35	1204.21
662.54	1208.30
662.73	1273.84
662.92	1187.82
663.11	1255.40
663.29	1275.88
663.48	1230.83
663.67	1230.83
663.86	1220.59
664.05	1204.21
664.24	1146.86
664.43	1234.93
664.62	1212.40
664.80	1214.45
664.99	1241.07
665.18	1232.88
665.37	1275.88
665.56	1343.47
665.75	1236.97
665.94	1222.64
666.13	1273.84
666.31	1112.05
666.50	1261.55
666.69	1245.16
666.88	1222.64
667.07	1253.36
667.26	1253.36
667.45	1169.39
667.63	1193.97
667.82	1257.45
668.01	1265.64
668.20	1165.29
668.39	1241.07
668.58	1226.73
668.76	1232.88
668.95	1200.11
669.14	1130.48
669.33	1189.87
669.52	1204.21
669.71	1234.93
669.90	1228.78
670.08	1234.93
670.27	1273.84
670.46	1187.82
670.65	1216.49
670.84	1275.88
671.03	1206.25
671.21	1234.93
671.40	1220.59
671.59	1155.05
671.78	1243.12
671.97	1294.32
672.15	1214.45
672.34	1224.69
672.53	1216.49
672.72	1204.21
672.91	1204.21
673.09	1150.96
673.28	1183.73
673.47	1296.36
673.66	1245.16
673.85	1234.93
674.04	1247.21
674.22	1282.03
674.41	1210.35
674.60	1175.53
674.79	1282.03
674.98	1220.59
675.16	1216.49
675.35	1257.45
675.54	1177.58
675.73	1179.63
675.91	1179.63
676.10	1193.97
676.29	1253.36
676.48	1261.55
676.67	1243.12
676.85	1142.77
677.04	1245.16
677.23	1183.73
677.42	1230.83
677.60	1218.54
677.79	1181.68
677.98	1263.60
678.17	1214.45
678.36	1273.84
678.54	1163.25
678.73	1181.68
678.92	1198.06
679.11	1236.97
679.29	1193.97
679.48	1226.73
679.67	1236.97
679.86	1218.54
680.04	1284.08
680.23	1216.49
680.42	1245.16
680.61	1212.40
680.79	1228.78
680.98	1253.36
681.17	1277.93
681.36	1230.83
681.54	1255.40
681.73	1243.12
681.92	1261.55
682.11	1222.64
682.29	1232.88
682.48	1245.16
682.67	1267.69
682.85	1210.35
683.04	1308.65
683.23	1253.36
683.42	1175.53
683.60	1210.35
683.79	1300.46
683.98	1273.84
684.17	1222.64
684.35	1210.35
684.54	1208.30
684.73	1243.12
684.91	1275.88
685.10	1245.16
685.29	1257.45
685.48	1269.74
685.66	1193.97
685.85	1181.68
686.04	1224.69
686.22	1292.27
686.41	1191.92
686.60	1234.93
686.78	1202.16
686.97	1253.36
687.16	1243.12
687.35	1263.60
687.53	1286.12
687.72	1253.36
687.91	1261.55
688.09	1169.39
688.28	1218.54
688.47	1243.12
688.65	1220.59
688.84	1298.41
689.03	1261.55
689.21	1239.02
689.40	1165.29
689.59	1286.12
689.77	1200.11
689.96	1316.84
690.15	1218.54
690.33	1163.25
690.52	1245.16
690.71	1322.99
690.89	1228.78
691.08	1196.01
691.27	1255.40
691.45	1210.35
691.64	1224.69
691.83	1247.21
692.01	1222.64
692.20	1179.63
692.39	1245.16
692.57	1249.26
692.76	1220.59
692.95	1306.60
693.13	1284.08
693.32	1218.54
693.50	1210.35
693.69	1247.21
693.88	1245.16
694.06	1198.06
694.25	1251.31
694.44	1153.01
694.62	1222.64
694.81	1265.64
695.00	1275.88
695.18	1228.78
695.37	1284.08
695.55	1236.97
695.74	1236.97
695.93	1189.87
696.11	1284.08
696.30	1181.68
696.49	1331.18
696.67	1224.69
696.86	1251.31
697.04	1226.73
697.23	1212.40
697.42	1206.25
697.60	1282.03
697.79	1308.65
697.97	1263.60
698.16	1183.73
698.35	1255.40
698.53	1247.21
698.72	1308.65
698.90	1228.78
699.09	1267.69
699.28	1234.93
699.46	1298.41
699.65	1226.73
699.83	1200.11
700.02	1122.29
700.21	1200.11
700.39	1224.69
700.58	1290.22
700.76	1226.73
700.95	1277.93
701.13	1296.36
701.32	1314.80
701.51	1179.63
701.69	1216.49
701.88	1251.31
702.06	1249.26
702.25	1183.73
702.43	1273.84
702.62	1243.12
702.81	1265.64
702.99	1236.97
703.18	1251.31
703.36	1232.88
703.55	1259.50
703.73	1251.31
703.92	1296.36
704.10	1284.08
704.29	1206.25
704.48	1286.12
704.66	1245.16
704.85	1230.83
705.03	1236.97
705.22	1251.31
705.40	1269.74
705.59	1310.70
705.77	1245.16
705.96	1304.56
706.14	1220.59
706.33	1263.60
706.51	1249.26
706.70	1331.18
706.89	1277.93
707.07	1329.13
707.26	1310.70
707.44	1286.12
707.63	1351.66
707.81	1288.17
708.00	1304.56
708.18	1251.31
708.37	1339.37
708.55	1296.36
708.74	1310.70
708.92	1300.46
709.11	1286.12
709.29	1187.82
709.48	1286.12
709.66	1267.69
709.85	1251.31
710.03	1196.01
710.22	1255.40
710.40	1279.98
710.59	1286.12
710.77	1310.70
710.96	1355.76
711.14	1265.64
711.33	1290.22
711.51	1322.99
711.70	1331.18
711.88	1320.94
712.07	1337.32
712.25	1261.55
712.44	1255.40
712.62	1206.25
712.81	1282.03
712.99	1251.31
713.18	1300.46
713.36	1282.03
713.54	1224.69
713.73	1257.45
713.91	1214.45
714.10	1302.51
714.28	1243.12
714.47	1202.16
714.65	1271.79
714.84	1216.49
715.02	1208.30
715.21	1267.69
715.39	1265.64
715.58	1279.98
715.76	1286.12
715.94	1257.45
716.13	1277.93
716.31	1245.16
716.50	1214.45
716.68	1247.21
716.87	1187.82
717.05	1243.12
717.24	1198.06
717.42	1177.58
717.60	1300.46
717.79	1255.40
717.97	1224.69
718.16	1200.11
718.34	1273.84
718.53	1282.03
718.71	1273.84
718.89	1234.93
719.08	1277.93
719.26	1216.49
719.45	1204.21
719.63	1206.25
719.82	1282.03
720.00	1255.40
720.18	1275.88
720.37	1236.97
720.55	1157.10
720.74	1257.45
720.92	1189.87
721.10	1218.54
721.29	1290.22
721.47	1232.88
721.66	1259.50
721.84	1220.59
722.02	1275.88
722.21	1255.40
722.39	1310.70
722.58	1230.83
722.76	1230.83
722.94	1196.01
723.13	1279.98
723.31	1232.88
723.50	1304.56
723.68	1302.51
723.86	1271.79
724.05	1241.07
724.23	1257.45
724.41	1222.64
724.60	1259.50
724.78	1234.93
724.97	1286.12
725.15	1218.54
725.33	1181.68
725.52	1263.60
725.70	1210.35
725.88	1204.21
726.07	1292.27
726.25	1218.54
726.44	1261.55
726.62	1230.83
726.80	1241.07
726.99	1185.77
727.17	1253.36
727.35	1265.64
727.54	1239.02
727.72	1232.88
727.90	1271.79
728.09	1331.18
728.27	1202.16
728.45	1282.03
728.64	1239.02
728.82	1253.36
729.00	1236.97
729.19	1282.03
729.37	1265.64
729.55	1232.88
729.74	1202.16
729.92	1167.34
730.10	1296.36
730.29	1196.01
730.47	1241.07
730.65	1253.36
730.84	1245.16
731.02	1212.40
731.20	1198.06
731.39	1247.21
731.57	1257.45
731.75	1218.54
731.94	1193.97
732.12	1163.25
732.30	1314.80
732.49	1222.64
732.67	1269.74
732.85	1193.97
733.03	1214.45
733.22	1265.64
733.40	1275.88
733.58	1241.07
733.77	1243.12
733.95	1222.64
734.13	1236.97
734.32	1269.74
734.50	1236.97
734.68	1212.40
734.86	1245.16
735.05	1228.78
735.23	1251.31
735.41	1263.60
735.60	1228.78
735.78	1228.78
735.96	1224.69
736.14	1181.68
736.33	1216.49
736.51	1251.31
736.69	1230.83
736.87	1236.97
737.06	1273.84
737.24	1247.21
737.42	1228.78
737.61	1265.64
737.79	1228.78
737.97	1198.06
738.15	1239.02
738.34	1267.69
738.52	1263.60
738.70	1239.02
738.88	1292.27
739.07	1259.50
739.25	1163.25
739.43	1249.26
739.61	1304.56
739.80	1284.08
739.98	1236.97
740.16	1234.93
740.34	1263.60
740.52	1310.70
740.71	1247.21
740.89	1243.12
741.07	1294.32
741.25	1202.16
741.44	1224.69
741.62	1224.69
741.80	1265.64
741.98	1286.12
742.17	1267.69
742.35	1206.25
742.53	1298.41
742.71	1193.97
742.89	1245.16
743.08	1261.55
743.26	1236.97
743.44	1191.92
743.62	1325.04
743.80	1279.98
743.99	1316.84
744.17	1230.83
744.35	1218.54
744.53	1282.03
744.71	1273.84
744.90	1273.84
745.08	1279.98
745.26	1200.11
745.44	1224.69
745.62	1279.98
745.81	1216.49
745.99	1193.97
746.17	1220.59
746.35	1224.69
746.53	1241.07
746.72	1228.78
746.90	1286.12
747.08	1267.69
747.26	1230.83
747.44	1277.93
747.62	1230.83
747.81	1277.93
747.99	1284.08
748.17	1288.17
748.35	1261.55
748.53	1269.74
748.71	1277.93
748.90	1265.64
749.08	1296.36
749.26	1292.27
749.44	1261.55
749.62	1284.08
749.80	1298.41
749.99	1279.98
750.17	1245.16
750.35	1331.18
750.53	1228.78
750.71	1196.01
750.89	1261.55
751.07	1265.64
751.26	1247.21
751.44	1157.10
751.62	1173.49
751.80	1198.06
751.98	1200.11
752.16	1265.64
752.34	1177.58
752.53	1265.64
752.71	1263.60
752.89	1234.93
753.07	1196.01
753.25	1284.08
753.43	1282.03
753.61	1208.30
753.79	1259.50
753.98	1290.22
754.16	1191.92
754.34	1234.93
754.52	1267.69
754.70	1210.35
754.88	1290.22
755.06	1259.50
755.24	1216.49
755.42	1263.60
755.60	1245.16
755.79	1232.88
755.97	1298.41
756.15	1200.11
756.33	1222.64
756.51	1292.27
756.69	1282.03
756.87	1212.40
757.05	1234.93
757.23	1284.08
757.41	1263.60
757.60	1241.07
757.78	1232.88
757.96	1218.54
758.14	1302.51
758.32	1279.98
758.50	1204.21
758.68	1259.50
758.86	1226.73
759.04	1257.45
759.22	1230.83
759.40	1292.27
759.58	1228.78
759.76	1273.84
759.94	1269.74
760.13	1210.35
760.31	1220.59
760.49	1220.59
760.67	1224.69
760.85	1210.35
761.03	1222.64
761.21	1245.16
761.39	1206.25
761.57	1212.40
761.75	1282.03
761.93	1273.84
762.11	1204.21
762.29	1251.31
762.47	1226.73
762.65	1282.03
762.83	1271.79
763.01	1265.64
763.19	1245.16
763.37	1308.65
763.55	1253.36
763.73	1218.54
763.91	1239.02
764.09	1220.59
764.27	1279.98
764.45	1255.40
764.64	1220.59
764.82	1208.30
765.00	1304.56
765.18	1187.82
765.36	1210.35
765.54	1292.27
765.72	1249.26
765.90	1263.60
766.08	1232.88
766.26	1216.49
766.44	1247.21
766.62	1247.21
766.80	1228.78
766.98	1282.03
767.16	1275.88
767.34	1263.60
767.52	1236.97
767.70	1236.97
767.88	1269.74
768.06	1228.78
768.24	1267.69
768.42	1189.87
768.60	1191.92
768.78	1249.26
768.96	1243.12
769.13	1210.35
769.31	1204.21
769.49	1306.60
769.67	1243.12
769.85	1271.79
770.03	1210.35
770.21	1286.12
770.39	1239.02
770.57	1273.84
770.75	1171.44
770.93	1220.59
771.11	1294.32
771.29	1290.22
771.47	1228.78
771.65	1312.75
771.83	1257.45
772.01	1202.16
772.19	1179.63
772.37	1124.33
772.55	1333.23
772.73	1304.56
772.91	1300.46
773.09	1345.52
773.27	1247.21
773.44	1234.93
773.62	1236.97
773.80	1279.98
773.98	1226.73
774.16	1193.97
774.34	1279.98
774.52	1189.87
774.70	1193.97
774.88	1224.69
775.06	1249.26
775.24	1279.98
775.42	1279.98
775.60	1269.74
775.78	1304.56
775.95	1255.40
776.13	1292.27
776.31	1333.23
776.49	1269.74
776.67	1232.88
776.85	1292.27
777.03	1224.69
777.21	1261.55
777.39	1255.40
777.57	1259.50
777.75	1208.30
777.92	1316.84
778.10	1314.80
778.28	1228.78
778.46	1247.21
778.64	1253.36
778.82	1206.25
779.00	1234.93
779.18	1279.98
779.36	1234.93
779.53	1224.69
779.71	1265.64
779.89	1210.35
780.07	1341.42
780.25	1282.03
780.43	1261.55
780.61	1275.88
780.79	1210.35
780.96	1247.21
781.14	1269.74
781.32	1239.02
781.50	1234.93
781.68	1261.55
781.86	1241.07
782.04	1181.68
782.21	1228.78
782.39	1243.12
782.57	1200.11
782.75	1234.93
782.93	1228.78
783.11	1216.49
783.29	1148.91
783.46	1228.78
783.64	1230.83
783.82	1220.59
784.00	1325.04
784.18	1208.30
784.36	1269.74
784.54	1232.88
784.71	1261.55
784.89	1224.69
785.07	1253.36
785.25	1181.68
785.43	1308.65
785.60	1234.93
785.78	1253.36
785.96	1267.69
786.14	1228.78
786.32	1216.49
786.50	1249.26
786.67	1277.93
786.85	1239.02
787.03	1226.73
787.21	1347.56
787.39	1269.74
787.56	1343.47
787.74	1181.68
787.92	1325.04
788.10	1163.25
788.28	1267.69
788.45	1288.17
788.63	1282.03
788.81	1284.08
788.99	1251.31
789.17	1302.51
789.34	1275.88
789.52	1202.16
789.70	1247.21
789.88	1214.45
790.06	1320.94
790.23	1261.55
790.41	1196.01
790.59	1218.54
790.77	1224.69
790.95	1245.16
791.12	1253.36
791.30	1228.78
791.48	1286.12
791.66	1269.74
791.83	1234.93
792.01	1159.15
792.19	1263.60
792.37	1251.31
792.54	1269.74
792.72	1251.31
792.90	1284.08
793.08	1222.64
793.25	1228.78
793.43	1226.73
793.61	1284.08
793.79	1208.30
793.96	1253.36
794.14	1271.79
794.32	1261.55
794.50	1386.47
794.67	1183.73
794.85	1230.83
795.03	1216.49
795.21	1212.40
795.38	1288.17
795.56	1198.06
795.74	1245.16
795.92	1224.69
796.09	1241.07
796.27	1216.49
796.45	1241.07
796.62	1204.21
796.80	1236.97
796.98	1239.02
797.16	1263.60
797.33	1269.74
797.51	1171.44
797.69	1290.22
797.86	1282.03
798.04	1257.45
798.22	1241.07
798.40	1286.12
798.57	1234.93
798.75	1214.45
798.93	1241.07
799.10	1214.45
799.28	1261.55
799.46	1247.21
799.63	1226.73
799.81	1255.40
799.99	1230.83
800.17	1259.50
800.34	1259.50
800.52	1234.93
800.70	1292.27
800.87	1267.69
801.05	1331.18
801.23	1216.49
801.40	1308.65
801.58	1290.22
801.76	1157.10
801.93	1224.69
802.11	1183.73
802.29	1212.40
802.46	1230.83
802.64	1236.97
802.82	1236.97
802.99	1263.60
803.17	1286.12
803.35	1294.32
803.52	1292.27
803.70	1179.63
803.88	1185.77
804.05	1273.84
804.23	1179.63
804.41	1245.16
804.58	1196.01
804.76	1241.07
804.94	1261.55
805.11	1214.45
805.29	1277.93
805.46	1130.48
805.64	1271.79
805.82	1222.64
805.99	1296.36
806.17	1290.22
806.35	1208.30
806.52	1236.97
806.70	1216.49
806.87	1230.83
807.05	1204.21
807.23	1316.84
807.40	1200.11
807.58	1298.41
807.76	1255.40
807.93	1286.12
808.11	1255.40
808.28	1255.40
808.46	1247.21
808.64	1294.32
808.81	1251.31
808.99	1243.12
809.16	1349.61
809.34	1273.84
809.52	1241.07
809.69	1142.77
809.87	1212.40
810.04	1241.07
810.22	1304.56
810.40	1224.69
810.57	1236.97
810.75	1269.74
810.92	1206.25
811.10	1234.93
811.28	1243.12
811.45	1191.92
811.63	1275.88
811.80	1343.47
811.98	1198.06
812.15	1277.93
812.33	1316.84
812.51	1220.59
812.68	1263.60
812.86	1290.22
813.03	1249.26
813.21	1265.64
813.38	1269.74
813.56	1239.02
813.74	1218.54
813.91	1224.69
814.09	1261.55
814.26	1236.97
814.44	1298.41
814.61	1269.74
814.79	1232.88
814.96	1179.63
815.14	1236.97
815.31	1261.55
815.49	1191.92
815.67	1155.05
815.84	1302.51
816.02	1230.83
816.19	1325.04
816.37	1255.40
816.54	1228.78
816.72	1191.92
816.89	1228.78
817.07	1187.82
817.24	1220.59
817.42	1259.50
817.59	1236.97
817.77	1216.49
817.94	1196.01
818.12	1294.32
818.29	1234.93
818.47	1232.88
818.64	1226.73
818.82	1253.36
818.99	1150.96
819.17	1316.84
819.34	1230.83
819.52	1279.98
819.69	1255.40
819.87	1239.02
820.04	1214.45
820.22	1249.26
820.39	1255.40
820.57	1257.45
820.74	1286.12
820.92	1251.31
821.09	1279.98
821.27	1249.26
821.44	1214.45
821.62	1241.07
821.79	1251.31
821.97	1257.45
822.14	1226.73
822.32	1222.64
822.49	1228.78
822.67	1279.98
822.84	1216.49
823.02	1263.60
823.19	1269.74
823.37	1255.40
823.54	1271.79
823.72	1275.88
823.89	1253.36
824.06	1265.64
824.24	1171.44
824.41	1271.79
824.59	1284.08
824.76	1257.45
824.94	1273.84
825.11	1200.11
825.29	1216.49
825.46	1204.21
825.63	1290.22
825.81	1150.96
825.98	1282.03
826.16	1232.88
826.33	1257.45
826.51	1284.08
826.68	1249.26
826.86	1230.83
827.03	1200.11
827.20	1181.68
827.38	1257.45
827.55	1251.31
827.73	1257.45
827.90	1249.26
828.07	1239.02
828.25	1243.12
828.42	1277.93
828.60	1220.59
828.77	1228.78
828.95	1224.69
829.12	1257.45
829.29	1189.87
829.47	1243.12
829.64	1157.10
829.82	1261.55
829.99	1183.73
830.16	1171.44
830.34	1368.04
830.51	1259.50
830.69	1206.25
830.86	1267.69
831.03	1253.36
831.21	1212.40
831.38	1144.81
831.55	1247.21
831.73	1210.35
831.90	1191.92
832.08	1212.40
832.25	1218.54
832.42	1202.16
832.60	1200.11
832.77	1234.93
832.94	1251.31
833.12	1279.98
833.29	1261.55
833.47	1239.02
833.64	1232.88
833.81	1286.12
833.99	1251.31
834.16	1222.64
834.33	1253.36
834.51	1196.01
834.68	1189.87
834.85	1208.30
835.03	1257.45
835.20	1255.40
835.37	1329.13
835.55	1169.39
835.72	1255.40
835.90	1216.49
836.07	1198.06
836.24	1218.54
836.42	1181.68
836.59	1191.92
836.76	1257.45
836.94	1230.83
837.11	1257.45
837.28	1294.32
837.46	1261.55
837.63	1218.54
837.80	1228.78
837.97	1277.93
838.15	1232.88
838.32	1257.45
838.49	1286.12
838.67	1212.40
838.84	1269.74
839.01	1208.30
839.19	1286.12
839.36	1161.20
839.53	1234.93
839.71	1277.93
839.88	1224.69
840.05	1259.50
840.22	1185.77
840.40	1210.35
840.57	1284.08
840.74	1224.69
840.92	1267.69
841.09	1284.08
841.26	1255.40
841.43	1224.69
841.61	1265.64
841.78	1239.02
841.95	1236.97
842.13	1259.50
842.30	1167.34
842.47	1193.97
842.64	1241.07
842.82	1269.74
842.99	1282.03
843.16	1204.21
843.34	1204.21
843.51	1183.73
843.68	1263.60
843.85	1169.39
844.03	1212.40
844.20	1228.78
844.37	1259.50
844.54	1208.30
844.72	1255.40
844.89	1232.88
845.06	1196.01
845.23	1167.34
845.41	1261.55
845.58	1208.30
845.75	1198.06
845.92	1275.88
846.10	1253.36
846.27	1208.30
846.44	1296.36
846.61	1191.92
846.78	1200.11
846.96	1165.29
847.13	1243.12
847.30	1261.55
847.47	1255.40
847.65	1259.50
847.82	1198.06
847.99	1249.26
848.16	1259.50
848.33	1161.20
848.51	1228.78
848.68	1245.16
848.85	1189.87
849.02	1200.11
849.19	1204.21
849.37	1259.50
849.54	1222.64
849.71	1208.30
849.88	1273.84
850.05	1210.35
850.23	1239.02
850.40	1232.88
850.57	1271.79
850.74	1247.21
850.91	1214.45
851.09	1257.45
851.26	1181.68
851.43	1234.93
851.60	1236.97
851.77	1269.74
851.95	1228.78
852.12	1202.16
852.29	1284.08
852.46	1247.21
852.63	1196.01
852.80	1267.69
852.98	1261.55
853.15	1320.94
853.32	1286.12
853.49	1243.12
853.66	1212.40
853.83	1196.01
854.01	1208.30
854.18	1261.55
854.35	1155.05
854.52	1220.59
854.69	1202.16
854.86	1251.31
855.03	1282.03
855.21	1267.69
855.38	1249.26
855.55	1204.21
855.72	1181.68
855.89	1304.56
856.06	1234.93
856.23	1198.06
856.41	1249.26
856.58	1181.68
856.75	1226.73
856.92	1363.95
857.09	1226.73
857.26	1179.63
857.43	1255.40
857.60	1179.63
857.78	1245.16
857.95	1222.64
858.12	1210.35
858.29	1314.80
858.46	1255.40
858.63	1249.26
858.80	1236.97
858.97	1206.25
859.14	1251.31
859.32	1171.44
859.49	1222.64
859.66	1279.98
859.83	1284.08
860.00	1261.55
860.17	1275.88
860.34	1245.16
860.51	1286.12
860.68	1255.40
860.85	1234.93
861.02	1230.83
861.20	1273.84
861.37	1245.16
861.54	1265.64
861.71	1210.35
861.88	1232.88
862.05	1228.78
862.22	1191.92
862.39	1161.20
862.56	1220.59
862.73	1216.49
862.90	1290.22
863.07	1202.16
863.24	1200.11
863.41	1216.49
863.59	1234.93
863.76	1267.69
863.93	1224.69
864.10	1247.21
864.27	1224.69
864.44	1228.78
864.61	1251.31
864.78	1306.60
864.95	1275.88
865.12	1249.26
865.29	1253.36
865.46	1249.26
865.63	1185.77
865.80	1232.88
865.97	1210.35
866.14	1288.17
866.31	1218.54
866.48	1220.59
866.65	1232.88
866.82	1228.78
866.99	1263.60
867.16	1247.21
867.33	1241.07
867.50	1261.55
867.67	1251.31
867.84	1245.16
868.01	1226.73
868.18	1204.21
868.35	1273.84
868.52	1214.45
868.69	1267.69
868.86	1165.29
869.03	1214.45
869.20	1224.69
869.37	1214.45
869.54	1265.64
869.71	1236.97
869.88	1310.70
870.05	1239.02
870.22	1243.12
870.39	1193.97
870.56	1294.32
870.73	1269.74
870.90	1228.78
871.07	1220.59
871.24	1296.36
871.41	1114.10
871.58	1273.84
871.75	1187.82
871.92	1239.02
872.09	1234.93
872.26	1185.77
872.43	1165.29
872.60	1228.78
872.77	1185.77
872.94	1255.40
873.11	1271.79
873.28	1239.02
873.45	1263.60
873.62	1236.97
873.79	1161.20
873.96	1210.35
874.13	1298.41
874.30	1228.78
874.47	1222.64
874.64	1210.35
874.80	1202.16
874.97	1222.64
875.14	1286.12
875.31	1226.73
875.48	1275.88
875.65	1255.40
875.82	1257.45
875.99	1239.02
876.16	1142.77
876.33	1275.88
876.50	1189.87
876.67	1282.03
876.84	1218.54
877.01	1171.44
877.17	1224.69
877.34	1249.26
877.51	1267.69
877.68	1212.40
877.85	1210.35
878.02	1232.88
878.19	1228.78
878.36	1204.21
878.53	1302.51
878.70	1243.12
878.87	1208.30
879.03	1177.58
879.20	1232.88
879.37	1257.45
879.54	1232.88
879.71	1310.70
879.88	1259.50
880.05	1275.88
880.22	1239.02
880.39	1210.35
880.55	1200.11
880.72	1245.16
880.89	1265.64
881.06	1187.82
881.23	1263.60
881.40	1251.31
881.57	1210.35
881.74	1239.02
881.90	1204.21
882.07	1206.25
882.24	1247.21
882.41	1269.74
882.58	1296.36
882.75	1204.21
882.92	1226.73
883.08	1214.45
883.25	1288.17
883.42	1228.78
883.59	1269.74
883.76	1191.92
883.93	1224.69
884.09	1253.36
884.26	1267.69
884.43	1277.93
884.60	1245.16
884.77	1169.39
884.94	1212.40
885.10	1204.21
885.27	1239.02
885.44	1263.60
885.61	1181.68
885.78	1196.01
885.95	1230.83
886.11	1177.58
886.28	1200.11
886.45	1185.77
886.62	1234.93
886.79	1247.21
886.96	1232.88
887.12	1236.97
887.29	1230.83
887.46	1212.40
887.63	1271.79
887.80	1218.54
887.96	1241.07
888.13	1255.40
888.30	1335.28
888.47	1282.03
888.64	1279.98
888.80	1163.25
888.97	1191.92
889.14	1159.15
889.31	1236.97
889.47	1251.31
889.64	1255.40
889.81	1226.73
889.98	1257.45
890.15	1183.73
890.31	1282.03
890.48	1282.03
890.65	1282.03
890.82	1282.03
890.98	1282.03
891.15	1282.03
>>>>>End Processed Spectral Data<<<<<
