SpectraSuite Data File
++++++++++++++++++++++++++++++++++++
Date: Fri Jan 24 16:50:08 MST 2020
User: Molly
Dark Spectrum Present: Yes
Reference Spectrum Present: Yes
Number of Sampled Component Spectra: 1
Spectrometers: USB4E03280
Integration Time (usec): 32000 (USB4E03280)
Spectra Averaged: 1 (USB4E03280)
Boxcar Smoothing: 0 (USB4E03280)
Correct for Electrical Dark: No (USB4E03280)
Strobe/Lamp Enabled: Yes (USB4E03280)
Correct for Detector Non-linearity: No (USB4E03280)
Correct for Stray Light: No (USB4E03280)
Number of Pixels in Processed Spectrum: 3648
>>>>>Begin Processed Spectral Data<<<<<
177.66	1177.58
177.88	1177.58
178.10	1177.58
178.32	1216.49
178.54	1269.74
178.76	1200.11
178.98	1253.36
179.19	1181.68
179.41	1187.82
179.63	1255.40
179.85	1173.49
180.07	1173.49
180.29	1234.93
180.51	1175.53
180.72	1163.25
180.94	1228.78
181.16	1167.34
181.38	1239.02
181.60	1308.65
181.82	1232.88
182.04	1271.79
182.25	1245.16
182.47	1288.17
182.69	1241.07
182.91	1216.49
183.13	1189.87
183.35	1282.03
183.56	1290.22
183.78	1271.79
184.00	1228.78
184.22	1286.12
184.44	1191.92
184.66	1282.03
184.87	1234.93
185.09	1210.35
185.31	1284.08
185.53	1308.65
185.75	1265.64
185.97	1267.69
186.18	1251.31
186.40	1191.92
186.62	1292.27
186.84	1349.61
187.06	1267.69
187.28	1253.36
187.49	1232.88
187.71	1368.04
187.93	1312.75
188.15	1228.78
188.37	1318.89
188.59	1241.07
188.80	1306.60
189.02	1210.35
189.24	1339.37
189.46	1308.65
189.68	1247.21
189.89	1245.16
190.11	1202.16
190.33	1228.78
190.55	1251.31
190.77	1269.74
190.98	1202.16
191.20	1239.02
191.42	1282.03
191.64	1300.46
191.86	1267.69
192.07	1322.99
192.29	1187.82
192.51	1249.26
192.73	1284.08
192.95	1292.27
193.16	1212.40
193.38	1290.22
193.60	1273.84
193.82	1290.22
194.04	1245.16
194.25	1257.45
194.47	1241.07
194.69	1214.45
194.91	1271.79
195.13	1181.68
195.34	1208.30
195.56	1265.64
195.78	1327.08
196.00	1284.08
196.22	1263.60
196.43	1247.21
196.65	1243.12
196.87	1282.03
197.09	1245.16
197.30	1206.25
197.52	1224.69
197.74	1181.68
197.96	1292.27
198.18	1228.78
198.39	1265.64
198.61	1155.05
198.83	1243.12
199.05	1204.21
199.26	1306.60
199.48	1241.07
199.70	1259.50
199.92	1275.88
200.13	1298.41
200.35	1294.32
200.57	1239.02
200.79	1284.08
201.00	1224.69
201.22	1269.74
201.44	1265.64
201.66	1234.93
201.88	1267.69
202.09	1255.40
202.31	1302.51
202.53	1253.36
202.75	1247.21
202.96	1267.69
203.18	1257.45
203.40	1236.97
203.62	1265.64
203.83	1325.04
204.05	1206.25
204.27	1243.12
204.49	1300.46
204.70	1210.35
204.92	1220.59
205.14	1216.49
205.35	1320.94
205.57	1286.12
205.79	1259.50
206.01	1216.49
206.22	1257.45
206.44	1273.84
206.66	1292.27
206.88	1290.22
207.09	1302.51
207.31	1279.98
207.53	1212.40
207.75	1269.74
207.96	1292.27
208.18	1304.56
208.40	1279.98
208.61	1226.73
208.83	1210.35
209.05	1212.40
209.27	1224.69
209.48	1279.98
209.70	1286.12
209.92	1304.56
210.14	1304.56
210.35	1239.02
210.57	1259.50
210.79	1257.45
211.00	1257.45
211.22	1286.12
211.44	1261.55
211.66	1282.03
211.87	1261.55
212.09	1286.12
212.31	1247.21
212.52	1277.93
212.74	1265.64
212.96	1234.93
213.17	1234.93
213.39	1236.97
213.61	1333.23
213.83	1208.30
214.04	1279.98
214.26	1279.98
214.48	1234.93
214.69	1236.97
214.91	1253.36
215.13	1261.55
215.34	1222.64
215.56	1253.36
215.78	1265.64
216.00	1177.58
216.21	1296.36
216.43	1335.28
216.65	1185.77
216.86	1259.50
217.08	1255.40
217.30	1267.69
217.51	1294.32
217.73	1277.93
217.95	1241.07
218.16	1275.88
218.38	1216.49
218.60	1290.22
218.81	1198.06
219.03	1224.69
219.25	1288.17
219.46	1290.22
219.68	1288.17
219.90	1265.64
220.11	1312.75
220.33	1150.96
220.55	1241.07
220.76	1275.88
220.98	1265.64
221.20	1269.74
221.41	1226.73
221.63	1265.64
221.85	1232.88
222.06	1265.64
222.28	1204.21
222.50	1314.80
222.71	1234.93
222.93	1243.12
223.15	1261.55
223.36	1366.00
223.58	1265.64
223.80	1230.83
224.01	1286.12
224.23	1269.74
224.45	1310.70
224.66	1241.07
224.88	1267.69
225.10	1228.78
225.31	1196.01
225.53	1208.30
225.75	1230.83
225.96	1208.30
226.18	1241.07
226.39	1241.07
226.61	1308.65
226.83	1316.84
227.04	1206.25
227.26	1320.94
227.48	1282.03
227.69	1251.31
227.91	1230.83
228.13	1329.13
228.34	1298.41
228.56	1302.51
228.77	1249.26
228.99	1198.06
229.21	1269.74
229.42	1263.60
229.64	1218.54
229.86	1232.88
230.07	1279.98
230.29	1212.40
230.50	1230.83
230.72	1173.49
230.94	1353.71
231.15	1279.98
231.37	1339.37
231.58	1322.99
231.80	1198.06
232.02	1296.36
232.23	1282.03
232.45	1290.22
232.67	1249.26
232.88	1255.40
233.10	1249.26
233.31	1220.59
233.53	1261.55
233.75	1220.59
233.96	1249.26
234.18	1300.46
234.39	1202.16
234.61	1335.28
234.83	1290.22
235.04	1269.74
235.26	1261.55
235.47	1165.29
235.69	1347.56
235.91	1306.60
236.12	1339.37
236.34	1245.16
236.55	1157.10
236.77	1292.27
236.99	1253.36
237.20	1255.40
237.42	1261.55
237.63	1271.79
237.85	1308.65
238.06	1241.07
238.28	1232.88
238.50	1318.89
238.71	1292.27
238.93	1239.02
239.14	1292.27
239.36	1234.93
239.58	1325.04
239.79	1234.93
240.01	1214.45
240.22	1275.88
240.44	1269.74
240.65	1282.03
240.87	1275.88
241.09	1308.65
241.30	1241.07
241.52	1296.36
241.73	1214.45
241.95	1261.55
242.16	1277.93
242.38	1277.93
242.59	1228.78
242.81	1224.69
243.03	1314.80
243.24	1277.93
243.46	1243.12
243.67	1271.79
243.89	1204.21
244.10	1218.54
244.32	1232.88
244.53	1359.85
244.75	1189.87
244.97	1265.64
245.18	1320.94
245.40	1290.22
245.61	1212.40
245.83	1251.31
246.04	1306.60
246.26	1249.26
246.47	1282.03
246.69	1228.78
246.90	1239.02
247.12	1366.00
247.34	1282.03
247.55	1294.32
247.77	1245.16
247.98	1261.55
248.20	1175.53
248.41	1265.64
248.63	1212.40
248.84	1300.46
249.06	1261.55
249.27	1245.16
249.49	1259.50
249.70	1331.18
249.92	1204.21
250.13	1292.27
250.35	1214.45
250.56	1318.89
250.78	1304.56
251.00	1273.84
251.21	1339.37
251.43	1220.59
251.64	1337.32
251.86	1265.64
252.07	1263.60
252.29	1271.79
252.50	1177.58
252.72	1257.45
252.93	1314.80
253.15	1286.12
253.36	1265.64
253.58	1249.26
253.79	1198.06
254.01	1206.25
254.22	1314.80
254.44	1271.79
254.65	1282.03
254.87	1339.37
255.08	1349.61
255.30	1298.41
255.51	1275.88
255.73	1234.93
255.94	1298.41
256.16	1306.60
256.37	1294.32
256.59	1234.93
256.80	1263.60
257.02	1292.27
257.23	1282.03
257.45	1243.12
257.66	1275.88
257.88	1308.65
258.09	1261.55
258.31	1245.16
258.52	1177.58
258.74	1322.99
258.95	1329.13
259.16	1286.12
259.38	1292.27
259.59	1304.56
259.81	1265.64
260.02	1320.94
260.24	1263.60
260.45	1304.56
260.67	1298.41
260.88	1327.08
261.10	1327.08
261.31	1251.31
261.53	1255.40
261.74	1247.21
261.96	1218.54
262.17	1241.07
262.39	1265.64
262.60	1216.49
262.81	1273.84
263.03	1279.98
263.24	1228.78
263.46	1288.17
263.67	1316.84
263.89	1273.84
264.10	1150.96
264.32	1288.17
264.53	1263.60
264.75	1271.79
264.96	1273.84
265.17	1257.45
265.39	1312.75
265.60	1253.36
265.82	1253.36
266.03	1245.16
266.25	1263.60
266.46	1263.60
266.68	1226.73
266.89	1251.31
267.10	1261.55
267.32	1335.28
267.53	1275.88
267.75	1306.60
267.96	1257.45
268.18	1236.97
268.39	1265.64
268.61	1302.51
268.82	1263.60
269.03	1329.13
269.25	1241.07
269.46	1261.55
269.68	1239.02
269.89	1261.55
270.11	1284.08
270.32	1259.50
270.53	1300.46
270.75	1349.61
270.96	1267.69
271.18	1275.88
271.39	1282.03
271.60	1284.08
271.82	1259.50
272.03	1296.36
272.25	1327.08
272.46	1257.45
272.68	1345.52
272.89	1193.97
273.10	1275.88
273.32	1325.04
273.53	1261.55
273.75	1243.12
273.96	1259.50
274.17	1253.36
274.39	1279.98
274.60	1187.82
274.82	1263.60
275.03	1288.17
275.24	1325.04
275.46	1335.28
275.67	1322.99
275.89	1259.50
276.10	1265.64
276.31	1282.03
276.53	1331.18
276.74	1273.84
276.96	1298.41
277.17	1253.36
277.38	1312.75
277.60	1320.94
277.81	1290.22
278.02	1314.80
278.24	1245.16
278.45	1185.77
278.67	1239.02
278.88	1320.94
279.09	1284.08
279.31	1273.84
279.52	1243.12
279.73	1228.78
279.95	1245.16
280.16	1259.50
280.38	1216.49
280.59	1306.60
280.80	1228.78
281.02	1300.46
281.23	1286.12
281.44	1292.27
281.66	1302.51
281.87	1247.21
282.09	1261.55
282.30	1259.50
282.51	1286.12
282.73	1294.32
282.94	1273.84
283.15	1351.66
283.37	1308.65
283.58	1329.13
283.79	1288.17
284.01	1302.51
284.22	1394.67
284.43	1349.61
284.65	1257.45
284.86	1294.32
285.07	1366.00
285.29	1343.47
285.50	1306.60
285.72	1382.38
285.93	1374.19
286.14	1353.71
286.36	1349.61
286.57	1425.39
286.78	1445.87
287.00	1368.04
287.21	1366.00
287.42	1460.20
287.64	1437.67
287.85	1523.69
288.06	1452.01
288.28	1488.87
288.49	1531.88
288.70	1544.17
288.92	1540.07
289.13	1601.51
289.34	1486.83
289.56	1507.30
289.77	1583.08
289.98	1566.70
290.19	1540.07
290.41	1611.75
290.62	1544.17
290.83	1613.80
291.05	1513.45
291.26	1628.14
291.47	1589.22
291.69	1601.51
291.90	1730.53
292.11	1677.29
292.33	1728.49
292.54	1761.25
292.75	1779.68
292.97	1855.46
293.18	1859.56
293.39	1877.99
293.60	1974.24
293.82	2035.68
294.03	1931.23
294.24	2142.18
294.46	2043.87
294.67	2162.66
294.88	2265.05
295.10	2279.39
295.31	2279.39
295.52	2451.42
295.73	2547.67
295.95	2478.04
296.16	2609.11
296.37	2641.88
296.59	2684.89
296.80	2754.52
297.01	2901.97
297.22	2834.39
297.44	2987.99
297.65	2953.17
297.86	2994.13
298.08	3061.71
298.29	3123.15
298.50	3270.61
298.71	3299.28
298.93	3219.41
299.14	3282.89
299.35	3444.68
299.56	3383.24
299.78	3348.43
299.99	3481.55
300.20	3514.31
300.42	3526.60
300.63	3649.48
300.84	3774.41
301.05	3626.95
301.27	3663.82
301.48	3594.19
301.69	3680.20
301.90	3807.17
302.12	3848.13
302.33	3792.84
302.54	3872.71
302.75	3862.47
302.97	3975.11
303.18	3821.51
303.39	3983.30
303.60	4036.55
303.82	3991.49
304.03	4091.84
304.24	4114.37
304.45	4114.37
304.67	4054.98
304.88	4202.43
305.09	4028.35
305.30	4200.38
305.52	4278.21
305.73	4292.54
305.94	4302.78
306.15	4280.25
306.37	4282.30
306.58	4249.54
306.79	4368.32
307.00	4442.04
307.22	4294.59
307.43	4546.49
307.64	4464.57
307.85	4360.13
308.06	4542.39
308.28	4360.13
308.49	4550.59
308.70	4546.49
308.91	4603.83
309.13	4739.00
309.34	4642.75
309.55	4775.86
309.76	4566.97
309.97	4681.66
310.19	4747.19
310.40	4798.39
310.61	4872.12
310.82	4759.48
311.04	4865.97
311.25	4755.38
311.46	4827.06
311.67	4798.39
311.88	4847.54
312.10	4878.26
312.31	4949.94
312.52	4896.69
312.73	4868.02
312.94	4902.84
313.16	5048.24
313.37	4853.69
313.58	4939.70
313.79	5009.33
314.00	5060.53
314.22	5056.43
314.43	5089.20
314.64	5052.34
314.85	5250.99
315.06	5259.18
315.27	5052.34
315.49	5136.31
315.70	5263.28
315.91	5185.46
316.12	5119.92
316.33	5277.62
316.55	5298.10
316.76	5263.28
316.97	5423.02
317.18	5437.36
317.39	5341.10
317.60	5437.36
317.82	5347.25
318.03	5304.24
318.24	5558.19
318.45	5470.12
318.66	5359.53
318.88	5484.46
319.09	5535.66
319.30	5590.95
319.51	5537.71
319.72	5541.80
319.93	5406.64
320.15	5588.91
320.36	5562.28
320.57	5453.74
320.78	5595.05
320.99	5646.25
321.20	5648.30
321.41	5556.14
321.63	5734.31
321.84	5580.71
322.05	5472.17
322.26	5525.42
322.47	5736.36
322.68	5703.59
322.90	5685.16
323.11	5629.87
323.32	5808.04
323.53	5771.18
323.74	5580.71
323.95	5652.39
324.16	5607.34
324.38	5697.45
324.59	5789.61
324.80	5812.14
325.01	5758.89
325.22	5576.62
325.43	5834.66
325.64	5881.77
325.85	5799.85
326.07	5601.19
326.28	5744.55
326.49	5576.62
326.70	5670.83
326.91	5621.67
327.12	5578.67
327.33	5615.53
327.54	5724.07
327.76	5490.60
327.97	5550.00
328.18	5640.11
328.39	5617.58
328.60	5656.49
328.81	5474.22
329.02	5480.36
329.23	5775.27
329.45	5623.72
329.66	5631.91
329.87	5595.05
330.08	5664.68
330.29	5580.71
330.50	5738.41
330.71	5679.02
330.92	5840.81
331.13	6021.03
331.34	5953.45
331.56	6148.00
331.77	6377.37
331.98	6455.20
332.19	6438.81
332.40	6582.17
332.61	6635.42
332.82	6387.61
333.03	6313.89
333.24	6107.04
333.45	6148.00
333.67	5935.01
333.88	5982.12
334.09	5955.49
334.30	6053.80
334.51	6037.41
334.72	6033.32
334.93	6041.51
335.14	5875.62
335.35	6031.27
335.56	5982.12
335.77	6029.22
335.98	6039.46
336.19	6057.89
336.41	5908.39
336.62	5988.26
336.83	6039.46
337.04	5949.35
337.25	6082.47
337.46	5945.25
337.67	6152.10
337.88	6076.32
338.09	6104.99
338.30	6078.37
338.51	6129.57
338.72	6076.32
338.93	6041.51
339.14	6109.09
339.35	6107.04
339.57	5982.12
339.78	6066.08
339.99	6053.80
340.20	5998.50
340.41	5959.59
340.62	6195.11
340.83	5990.31
341.04	6049.70
341.25	6082.47
341.46	6055.84
341.67	6008.74
341.88	6178.72
342.09	6025.12
342.30	6053.80
342.51	5994.40
342.72	6221.73
342.93	6129.57
343.14	6205.35
343.35	6195.11
343.56	6186.91
343.77	6197.15
343.98	6078.37
344.19	6057.89
344.41	6156.19
344.62	6113.19
344.83	6088.61
345.04	5973.92
345.25	6143.91
345.46	6188.96
345.67	6199.20
345.88	6295.46
346.09	6061.99
346.30	6254.50
346.51	6303.65
346.72	6150.05
346.93	6252.45
347.14	6231.97
347.35	6231.97
347.56	6264.74
347.77	6191.01
347.98	6330.27
348.19	6137.76
348.40	6330.27
348.61	6197.15
348.82	6156.19
349.03	6111.14
349.24	6238.11
349.45	6172.58
349.66	6072.23
349.87	6250.40
350.08	6123.43
350.29	6188.96
350.50	6141.86
350.71	6080.42
350.92	6031.27
351.13	6152.10
351.34	6221.73
351.55	6170.53
351.76	5947.30
351.97	6139.81
352.18	6115.23
352.39	6018.98
352.60	6049.70
352.81	6066.08
353.02	6094.76
353.23	6016.93
353.44	6170.53
353.65	6217.63
353.86	6090.66
354.07	6025.12
354.28	6055.84
354.49	6055.84
354.70	6090.66
354.90	6018.98
355.11	6150.05
355.32	6215.59
355.53	6096.80
355.74	6008.74
355.95	5992.36
356.16	6205.35
356.37	6090.66
356.58	6115.23
356.79	5973.92
357.00	6096.80
357.21	6041.51
357.42	6188.96
357.63	6043.56
357.84	6150.05
358.05	6084.52
358.26	6283.17
358.47	6186.91
358.68	6236.06
358.89	6039.46
359.10	6045.60
359.31	6074.28
359.52	6184.87
359.73	6260.64
359.93	6256.54
360.14	6123.43
360.35	6250.40
360.56	6115.23
360.77	6254.50
360.98	6307.74
361.19	6219.68
361.40	6305.70
361.61	6317.98
361.82	6268.83
362.03	6248.35
362.24	6332.32
362.45	6238.11
362.66	6436.77
362.87	6422.43
363.07	6547.36
363.28	6506.40
363.49	6426.53
363.70	6449.05
363.91	6172.58
364.12	6352.80
364.33	6461.34
364.54	6553.50
364.75	6510.49
364.96	6502.30
365.17	6555.55
365.38	6465.44
365.58	6756.25
365.79	6455.20
366.00	6561.69
366.21	6516.64
366.42	6614.94
366.63	6784.92
366.84	6688.67
367.05	6649.75
367.26	6629.27
367.47	6717.34
367.67	6666.14
367.88	6666.14
368.09	6811.54
368.30	6692.76
368.51	6594.46
368.72	6784.92
368.93	6754.20
369.14	6567.84
369.35	6559.64
369.56	6676.38
369.76	6537.12
369.97	6563.74
370.18	6463.39
370.39	6641.56
370.60	6348.70
370.81	6600.60
371.02	6594.46
371.23	6664.09
371.43	6592.41
371.64	6590.36
371.85	6639.51
372.06	6590.36
372.27	6573.98
372.48	6594.46
372.69	6651.80
372.90	6657.95
373.10	6494.11
373.31	6596.51
373.52	6604.70
373.73	6588.32
373.94	6623.13
374.15	6696.86
374.36	6700.95
374.56	6825.88
374.77	6739.87
374.98	6819.74
375.19	6645.66
375.40	6791.06
375.61	6875.03
375.82	6778.78
376.02	6674.33
376.23	6850.46
376.44	6739.87
376.65	6811.54
376.86	6799.26
377.07	6965.14
377.28	6891.41
377.48	6838.17
377.69	6746.01
377.90	6987.67
378.11	6985.62
378.32	6895.51
378.53	6932.37
378.73	6905.75
378.94	6897.56
379.15	6858.65
379.36	7010.20
379.57	6875.03
379.78	6834.07
379.98	6741.91
380.19	6815.64
380.40	6940.57
380.61	6676.38
380.82	6666.14
381.03	6741.91
381.23	6961.05
381.44	6936.47
381.65	6862.74
381.86	6930.33
382.07	6875.03
382.27	7036.82
382.48	6715.29
382.69	6760.34
382.90	6932.37
383.11	6723.48
383.32	6799.26
383.52	6909.85
383.73	6938.52
383.94	6803.35
384.15	6696.86
384.36	6670.23
384.56	6733.72
384.77	6780.82
384.98	6877.08
385.19	6778.78
385.40	6711.19
385.60	6676.38
385.81	6786.97
386.02	6559.64
386.23	6717.34
386.43	6995.86
386.64	6987.67
386.85	6778.78
387.06	6883.22
387.27	6905.75
387.47	6959.00
387.68	6971.29
387.89	7014.29
388.10	6715.29
388.31	7045.01
388.51	7049.11
388.72	6791.06
388.93	6713.24
389.14	6696.86
389.34	6758.30
389.55	6793.11
389.76	6647.71
389.97	6887.32
390.18	6911.89
390.38	6879.13
390.59	6703.00
390.80	7006.10
391.01	6920.09
391.21	6975.38
391.42	7296.91
391.63	7350.16
391.84	7002.01
392.04	7301.01
392.25	7321.49
392.46	7100.31
392.67	7274.38
392.87	7253.91
393.08	6858.65
393.29	7116.69
393.50	7069.59
393.70	6948.76
393.91	7020.44
394.12	6918.04
394.33	6711.19
394.53	6909.85
394.74	6737.82
394.95	6659.99
395.16	7067.54
395.36	6649.75
395.57	6700.95
395.78	6610.84
395.99	6696.86
396.19	6975.38
396.40	7026.58
396.61	6995.86
396.81	6801.30
397.02	7260.05
397.23	7301.01
397.44	7366.54
397.64	7321.49
397.85	7417.74
398.06	7311.25
398.27	7145.36
398.47	7313.30
398.68	7049.11
398.89	7167.89
399.09	7147.41
399.30	7047.06
399.51	7020.44
399.72	6975.38
399.92	7122.84
400.13	6866.84
400.34	6930.33
400.54	6836.12
400.75	7053.20
400.96	6868.89
401.17	7182.23
401.37	6877.08
401.58	7047.06
401.79	6623.13
401.99	7214.99
402.20	6983.57
402.41	7135.12
402.61	7059.35
402.82	6961.05
403.03	6983.57
403.24	6850.46
403.44	6793.11
403.65	6887.32
403.86	7061.40
404.06	7112.60
404.27	7004.05
404.48	7198.61
404.68	7139.22
404.89	7075.73
405.10	7020.44
405.30	7165.84
405.51	7083.92
405.72	6891.41
405.92	6741.91
406.13	6766.49
406.34	6825.88
406.54	6805.40
406.75	6803.35
406.96	6752.15
407.16	7036.82
407.37	7069.59
407.58	6893.46
407.78	7155.60
407.99	7088.02
408.20	7301.01
408.40	7102.36
408.61	6969.24
408.82	7106.45
409.02	7022.48
409.23	7038.87
409.44	7010.20
409.64	6864.79
409.85	6743.96
410.06	6692.76
410.26	6918.04
410.47	6864.79
410.68	6729.63
410.88	7135.12
411.09	7079.83
411.30	7088.02
411.50	6893.46
411.71	7118.74
411.91	7114.64
412.12	6989.72
412.33	7077.78
412.53	6969.24
412.74	7241.62
412.95	7004.05
413.15	7274.38
413.36	6993.81
413.57	6944.66
413.77	6778.78
413.98	6772.63
414.18	6866.84
414.39	6870.94
414.60	7010.20
414.80	7057.30
415.01	6981.53
415.22	7059.35
415.42	6915.99
415.63	6905.75
415.83	6967.19
416.04	6754.20
416.25	6852.50
416.45	6741.91
416.66	6954.90
416.86	6856.60
417.07	7100.31
417.28	6889.37
417.48	7059.35
417.69	6975.38
417.89	6944.66
418.10	6844.31
418.31	6889.37
418.51	6879.13
418.72	7165.84
418.92	6858.65
419.13	7090.07
419.34	6975.38
419.54	7051.16
419.75	6875.03
419.95	7184.27
420.16	7122.84
420.37	7276.43
420.57	7415.69
420.78	7278.48
420.98	7608.20
421.19	7585.68
421.40	7239.57
421.60	7481.23
421.81	7372.69
422.01	7278.48
422.22	7176.08
422.42	7157.65
422.63	7108.50
422.84	6856.60
423.04	7002.01
423.25	6887.32
423.45	6811.54
423.66	7073.68
423.86	6795.16
424.07	7231.38
424.28	7395.22
424.48	7272.34
424.69	6985.62
424.89	7020.44
425.10	7108.50
425.30	7055.25
425.51	6627.23
425.72	7024.53
425.92	6821.78
426.13	6819.74
426.33	7004.05
426.54	7042.96
426.74	6907.80
426.95	6928.28
427.15	7036.82
427.36	7157.65
427.56	6623.13
427.77	7135.12
427.98	7176.08
428.18	7235.47
428.39	7417.74
428.59	7565.20
428.80	7356.30
429.00	7749.51
429.21	7747.47
429.41	7483.28
429.62	7614.35
429.82	7706.51
430.03	7673.74
430.23	7518.09
430.44	7542.67
430.65	7176.08
430.85	7612.30
431.06	7171.99
431.26	7065.49
431.47	6866.84
431.67	7231.38
431.88	7077.78
432.08	6983.57
432.29	6995.86
432.49	7204.75
432.70	6850.46
432.90	7014.29
433.11	7108.50
433.31	6782.87
433.52	6872.98
433.72	6825.88
433.93	7038.87
434.13	6967.19
434.34	7128.98
434.54	7063.44
434.75	7176.08
434.95	7346.06
435.16	7321.49
435.36	7262.10
435.57	7323.54
435.77	7546.76
435.98	7262.10
436.18	7339.92
436.39	7108.50
436.59	7014.29
436.80	7409.55
437.00	7096.21
437.21	7122.84
437.41	7253.91
437.62	7391.12
437.82	7425.93
438.03	7022.48
438.23	7378.83
438.44	7110.55
438.64	6907.80
438.85	6999.96
439.05	7210.90
439.25	7194.51
439.46	6829.98
439.66	6856.60
439.87	7110.55
440.07	6977.43
440.28	6778.78
440.48	7004.05
440.69	6920.09
440.89	7094.16
441.10	7038.87
441.30	6965.14
441.51	6844.31
441.71	6973.33
441.92	6893.46
442.12	7118.74
442.32	7059.35
442.53	6868.89
442.73	7194.51
442.94	7069.59
443.14	7102.36
443.35	6762.39
443.55	7028.63
443.76	6936.47
443.96	6897.56
444.16	6983.57
444.37	6938.52
444.57	7180.18
444.78	7176.08
444.98	7071.64
445.19	7042.96
445.39	7008.15
445.60	7049.11
445.80	7079.83
446.00	7249.81
446.21	7012.24
446.41	6959.00
446.62	6774.68
446.82	7030.68
447.03	7049.11
447.23	7040.92
447.43	6965.14
447.64	7118.74
447.84	6733.72
448.05	6754.20
448.25	6827.93
448.45	6922.13
448.66	6811.54
448.86	6909.85
449.07	7153.55
449.27	7063.44
449.48	6944.66
449.68	6707.10
449.88	6885.27
450.09	6985.62
450.29	6977.43
450.50	6778.78
450.70	6817.69
450.90	6848.41
451.11	6741.91
451.31	6895.51
451.52	6698.91
451.72	6522.78
451.92	6703.00
452.13	6694.81
452.33	6911.89
452.54	6516.64
452.74	6481.82
452.94	6504.35
453.15	6553.50
453.35	6381.47
453.55	6578.08
453.76	6391.71
453.96	6619.04
454.17	6424.48
454.37	6694.81
454.57	6586.27
454.78	6668.19
454.98	6514.59
455.19	6469.53
455.39	6678.43
455.59	6473.63
455.80	6309.79
456.00	6637.47
456.20	6672.28
456.41	6664.09
456.61	6485.92
456.81	6645.66
457.02	6320.03
457.22	6639.51
457.43	6229.92
457.63	6330.27
457.83	6533.02
458.04	6430.62
458.24	6391.71
458.44	6256.54
458.65	6469.53
458.85	6375.33
459.05	6588.32
459.26	6231.97
459.46	6389.66
459.66	6504.35
459.87	6789.02
460.07	6516.64
460.27	6821.78
460.48	6533.02
460.68	6635.42
460.88	6164.39
461.09	6383.52
461.29	6188.96
461.49	5947.30
461.70	6293.41
461.90	6119.33
462.10	5902.25
462.31	6234.02
462.51	5943.21
462.71	6033.32
462.92	6123.43
463.12	6145.95
463.32	6252.45
463.53	6291.36
463.73	6483.87
463.93	6369.18
464.14	6752.15
464.34	6680.47
464.54	6905.75
464.75	6844.31
464.95	6780.82
465.15	6619.04
465.36	6582.17
465.56	6608.80
465.76	6279.07
465.96	6340.51
466.17	5998.50
466.37	6152.10
466.57	6467.49
466.78	6377.37
466.98	6426.53
467.18	6543.26
467.39	6422.43
467.59	6176.67
467.79	6123.43
467.99	6283.17
468.20	6285.22
468.40	6336.42
468.60	6148.00
468.81	6414.24
469.01	6231.97
469.21	6008.74
469.41	6172.58
469.62	6268.83
469.82	6238.11
470.02	6229.92
470.23	6203.30
470.43	6408.09
470.63	6197.15
470.83	6213.54
471.04	6201.25
471.24	6340.51
471.44	6473.63
471.65	6350.75
471.85	6449.05
472.05	6598.56
472.25	6518.68
472.46	6573.98
472.66	6576.03
472.86	6680.47
473.06	6748.06
473.27	6604.70
473.47	6926.23
473.67	6991.77
473.87	6997.91
474.08	7288.72
474.28	7126.93
474.48	7335.82
474.68	7133.08
474.89	7217.04
475.09	7047.06
475.29	7309.20
475.49	7139.22
475.70	7311.25
475.90	7270.29
476.10	7270.29
476.30	7126.93
476.51	7301.01
476.71	7405.46
476.91	7329.68
477.11	7290.77
477.32	7378.83
477.52	7606.16
477.72	7382.93
477.92	7196.56
478.12	7395.22
478.33	7286.67
478.53	7266.19
478.73	7716.75
478.93	7675.79
479.14	7632.78
479.34	7751.56
479.54	7765.90
479.74	7714.70
479.94	7565.20
480.15	7880.58
480.35	7933.83
480.55	8132.48
480.75	8142.72
480.96	8175.49
481.16	8294.27
481.36	8236.93
481.56	7909.26
481.76	8118.15
481.97	8189.83
482.17	8050.57
482.37	8316.80
482.57	8210.31
482.77	8224.64
482.98	8413.06
483.18	8523.65
483.38	8617.85
483.58	8595.32
483.78	8554.37
483.98	8781.69
484.19	8910.71
484.39	8996.73
484.59	9328.50
484.79	9250.67
484.99	9480.05
485.20	9529.20
485.40	9547.63
485.60	9439.09
485.80	9234.29
486.00	9342.83
486.20	9471.86
486.41	9402.22
486.61	9095.03
486.81	8943.48
487.01	8953.72
487.21	8873.85
487.42	8738.68
487.62	8945.53
487.82	8730.49
488.02	8787.83
488.22	8710.01
488.42	8572.80
488.62	8521.60
488.83	8703.87
489.03	8535.93
489.23	8484.73
489.43	8273.79
489.63	8435.58
489.83	8599.42
490.04	8308.61
490.24	8390.53
490.44	8607.61
490.64	8429.44
490.84	8300.42
491.04	8464.25
491.24	8411.01
491.45	8388.48
491.65	8431.49
491.85	8458.11
492.05	8509.31
492.25	8677.24
492.45	8650.62
492.65	8552.32
492.86	8492.93
493.06	8757.11
493.26	8591.23
493.46	8732.54
493.66	8673.15
493.86	8660.86
494.06	8419.20
494.26	8531.84
494.47	8630.14
494.67	8767.35
494.87	8961.91
495.07	9078.65
495.27	9174.90
495.47	9195.38
495.67	9097.08
495.87	8968.06
496.07	8978.30
496.28	8863.61
496.48	8654.72
496.68	8689.53
496.88	8679.29
497.08	8499.07
497.28	8437.63
497.48	8337.28
497.68	8378.24
497.88	8437.63
498.08	8544.13
498.29	8292.23
498.49	8357.76
498.69	8417.15
498.89	8458.11
499.09	8363.90
499.29	8337.28
499.49	8247.17
499.69	8472.45
499.89	8470.40
500.09	8363.90
500.29	8390.53
500.50	8605.56
500.70	8689.53
500.90	8607.61
501.10	8460.16
501.30	8357.76
501.50	8644.48
501.70	8417.15
501.90	8609.66
502.10	8433.54
502.30	8484.73
502.50	8667.00
502.70	8531.84
502.90	8519.55
503.10	8558.46
503.31	8478.59
503.51	8722.30
503.71	8591.23
503.91	8540.03
504.11	8308.61
504.31	8345.47
504.51	8456.06
504.71	8329.09
504.91	8204.16
505.11	7972.74
505.31	8136.58
505.51	8161.16
505.71	8146.82
505.91	8238.98
506.11	7944.07
506.31	8028.04
506.51	7806.86
506.71	8064.90
506.91	7960.45
507.11	8017.80
507.31	8228.74
507.51	8089.48
507.72	7788.43
507.92	7909.26
508.12	7796.62
508.32	8062.85
508.52	7790.47
508.72	8095.62
508.92	7843.72
509.12	7903.11
509.32	8073.09
509.52	7911.30
509.72	7913.35
509.92	7948.17
510.12	8107.91
510.32	7866.25
510.52	8048.52
510.72	8011.65
510.92	7735.18
511.12	7931.78
511.32	7976.84
511.52	7890.82
511.72	7937.93
511.92	7823.24
512.12	7802.76
512.32	7851.91
512.52	7946.12
512.72	7788.43
512.92	7911.30
513.12	7835.53
513.32	7962.50
513.52	7669.64
513.72	7700.36
513.92	7618.44
514.12	7663.50
514.32	7720.84
514.52	7632.78
514.72	7733.13
514.92	7901.06
515.12	7919.50
515.32	8085.38
515.52	7882.63
515.72	7862.15
515.92	7948.17
516.12	7968.65
516.32	8023.94
516.52	7827.34
516.72	7851.91
516.92	7921.54
517.12	8089.48
517.32	7991.17
517.51	8007.56
517.71	8214.40
517.91	8155.01
518.11	7991.17
518.31	8210.31
518.51	8257.41
518.71	8208.26
518.91	8044.42
519.11	8089.48
519.31	7972.74
519.51	8038.28
519.71	8271.75
519.91	7851.91
520.11	8124.29
520.31	8165.25
520.51	8025.99
520.71	8132.48
520.91	8195.97
521.11	7970.69
521.31	8228.74
521.51	8214.40
521.70	8005.51
521.90	8318.85
522.10	8124.29
522.30	8159.11
522.50	8015.75
522.70	8032.13
522.90	8007.56
523.10	8144.77
523.30	8216.45
523.50	8146.82
523.70	8200.07
523.90	8306.56
524.10	8249.22
524.30	8175.49
524.49	8179.59
524.69	8265.60
524.89	8284.03
525.09	8298.37
525.29	8316.80
525.49	8232.83
525.69	8220.55
525.89	8279.94
526.09	8306.56
526.29	8099.72
526.49	8134.53
526.68	8052.61
526.88	8230.79
527.08	8314.75
527.28	8185.73
527.48	8343.42
527.68	8402.82
527.88	8288.13
528.08	8361.86
528.28	8451.97
528.48	8441.73
528.67	8443.78
528.87	8523.65
529.07	8333.18
529.27	8408.96
529.47	8425.34
529.67	8150.92
529.87	8077.19
530.07	8191.88
530.26	8234.88
530.46	8263.55
530.66	8331.14
530.86	8204.16
531.06	8284.03
531.26	8212.35
531.46	8308.61
531.66	8341.38
531.85	8322.94
532.05	8394.62
532.25	8478.59
532.45	8593.28
532.65	8632.19
532.85	8564.61
533.05	8593.28
533.25	8568.70
533.44	8736.63
533.64	8644.48
533.84	8509.31
534.04	8628.09
534.24	8456.06
534.44	8617.85
534.63	8533.89
534.83	8511.36
535.03	8466.30
535.23	8255.36
535.43	8318.85
535.63	8157.06
535.83	8331.14
536.02	8202.11
536.22	8509.31
536.42	8531.84
536.62	8437.63
536.82	8597.37
537.02	8634.24
537.21	8652.67
537.41	8691.58
537.61	8849.27
537.81	8955.77
538.01	8859.51
538.21	8898.42
538.40	8937.34
538.60	8900.47
538.80	8867.70
539.00	8908.66
539.20	8707.96
539.39	8849.27
539.59	8763.26
539.79	8828.79
539.99	8808.31
540.19	8734.59
540.39	8783.74
540.58	8810.36
540.78	8935.29
540.98	8863.61
541.18	8804.22
541.38	8834.94
541.57	8824.70
541.77	8824.70
541.97	8808.31
542.17	8974.20
542.37	8925.05
542.56	8959.86
542.76	8863.61
542.96	9058.17
543.16	9070.45
543.35	9105.27
543.55	9172.85
543.75	9324.40
543.95	9287.54
544.15	9179.00
544.34	9193.33
544.54	9211.76
544.74	9246.58
544.94	9195.38
545.14	9105.27
545.33	9129.84
545.53	9031.54
545.73	9013.11
545.93	9162.61
546.12	9168.76
546.32	9193.33
546.52	9189.24
546.72	9422.70
546.91	9201.52
547.11	9400.18
547.31	9359.22
547.51	9179.00
547.70	9092.98
547.90	8896.38
548.10	8927.10
548.30	8980.34
548.50	8652.67
548.69	8873.85
548.89	8753.02
549.09	8843.13
549.29	8415.10
549.48	8732.54
549.68	8732.54
549.88	8603.52
550.07	8673.15
550.27	8580.99
550.47	8738.68
550.67	8800.12
550.86	9234.29
551.06	9146.23
551.26	9228.15
551.46	9203.57
551.65	9183.09
551.85	9258.87
552.05	8867.70
552.25	9191.28
552.44	9068.41
552.64	9103.22
552.84	9133.94
553.03	8941.43
553.23	8990.58
553.43	8976.25
553.63	9082.74
553.82	9172.85
554.02	9400.18
554.22	9320.31
554.41	9240.44
554.61	9283.44
554.81	9322.35
555.01	9082.74
555.20	9160.56
555.40	9021.30
555.60	8976.25
555.79	8927.10
555.99	8943.48
556.19	8879.99
556.38	8861.56
556.58	8703.87
556.78	8789.88
556.98	8587.13
557.17	8394.62
557.37	8404.86
557.57	8654.72
557.76	8494.97
557.96	8535.93
558.16	8558.46
558.35	8634.24
558.55	8759.16
558.75	8894.33
558.94	8912.76
559.14	9109.36
559.34	9437.04
559.53	9316.21
559.73	9367.41
559.93	9457.52
560.12	9758.57
560.32	9592.69
560.52	9426.80
560.71	9836.39
560.91	9602.93
561.11	9631.60
561.30	9453.42
561.50	9570.16
561.70	9498.48
561.89	9656.17
562.09	9641.84
562.29	9887.59
562.48	9576.30
562.68	9449.33
562.88	9625.45
563.07	9568.11
563.27	9391.98
563.47	9455.47
563.66	9361.27
563.86	9351.03
564.06	9322.35
564.25	9336.69
564.45	9207.67
564.64	9170.80
564.84	9017.21
565.04	8986.49
565.23	9148.28
565.43	9195.38
565.63	9011.06
565.82	9047.93
566.02	9142.13
566.22	9512.81
566.41	9561.97
566.61	9490.29
566.80	9570.16
567.00	9725.80
567.20	9824.11
567.39	9830.25
567.59	9879.40
567.78	10200.93
567.98	10323.81
568.18	10426.21
568.37	10469.22
568.57	10887.00
568.77	10657.63
568.96	10977.11
569.16	11048.79
569.35	11179.86
569.55	11149.14
569.75	11646.80
569.94	11698.00
570.14	11843.40
570.33	12052.30
570.53	12490.56
570.73	12316.48
570.92	12336.96
571.12	12169.03
571.31	11917.13
571.51	11798.35
571.71	12042.06
571.90	12328.77
572.10	12353.35
572.29	12644.16
572.49	12717.89
572.68	12685.12
572.88	12795.71
573.08	12617.54
573.27	12984.12
573.47	13066.04
573.66	13616.94
573.86	13489.97
574.05	13242.17
574.25	12902.20
574.45	12918.59
574.64	12566.34
574.84	12353.35
575.03	12392.26
575.23	12726.08
575.42	12427.07
575.62	12971.83
575.82	12808.00
576.01	13113.14
576.21	13834.03
576.40	14194.47
576.60	14931.74
576.79	15120.15
576.99	15283.99
577.18	15359.77
577.38	14903.07
577.57	14210.86
577.77	13727.53
577.97	13524.79
578.16	13444.91
578.36	13297.46
578.55	13324.08
578.75	13225.78
578.94	13178.68
579.14	12779.32
579.33	12885.82
579.53	13086.52
579.72	13745.97
579.92	14696.22
580.11	15347.48
580.31	16015.12
580.50	16228.10
580.70	16803.58
580.90	16334.60
581.09	15437.59
581.29	15163.16
581.48	14780.19
581.68	14485.28
581.87	13852.46
582.07	13338.42
582.26	13053.75
582.46	12615.49
582.65	12689.21
582.85	12355.40
583.04	12091.21
583.24	12590.91
583.43	13279.03
583.63	13684.53
583.82	14243.62
584.02	14546.72
584.21	14831.39
584.41	14903.07
584.60	14548.77
584.80	14432.04
584.99	14044.97
585.19	13709.10
585.38	13520.69
585.58	13520.69
585.77	13322.04
585.97	13545.27
586.16	13457.20
586.35	13592.37
586.55	13598.51
586.74	13678.38
586.94	13688.62
587.13	13430.58
587.33	13584.18
587.52	13059.90
587.72	12894.01
587.91	12508.99
588.11	12304.20
588.30	12181.32
588.50	11962.19
588.69	12087.11
588.89	12269.38
589.08	12031.82
589.28	12083.02
589.47	11915.08
589.66	11636.56
589.86	11413.33
590.05	11528.02
590.25	11585.36
590.44	11698.00
590.64	11728.72
590.83	11808.59
591.03	11915.08
591.22	12455.75
591.41	13061.94
591.61	13209.40
591.80	14165.80
592.00	14442.28
592.19	14493.47
592.39	14366.50
592.58	14137.13
592.78	13786.93
592.97	13299.51
593.16	13041.46
593.36	12666.69
593.55	12500.80
593.75	12404.55
593.94	12261.19
594.14	12480.32
594.33	12250.95
594.52	12250.95
594.72	12001.10
594.91	11665.23
595.11	11691.85
595.30	11464.53
595.49	11487.06
595.69	11665.23
595.88	11876.17
596.08	12048.20
596.27	12732.22
596.47	12605.25
596.66	12648.26
596.85	12523.33
597.05	12912.44
597.24	13063.99
597.44	13582.13
597.63	13922.09
597.82	14470.95
598.02	14872.35
598.21	14726.94
598.40	14884.64
598.60	14714.66
598.79	14923.55
598.99	15056.67
599.18	15062.81
599.37	14745.38
599.57	14229.29
599.76	13889.32
599.96	13672.24
600.15	13371.19
600.34	12871.48
600.54	12941.11
600.73	12617.54
600.92	12455.75
601.12	12218.18
601.31	12244.81
601.51	11937.61
601.70	11704.14
601.89	12060.49
602.09	12044.10
602.28	12443.46
602.47	12552.00
602.67	12767.04
602.86	13307.70
603.05	13117.24
603.25	13203.25
603.44	12984.12
603.63	13023.03
603.83	13172.54
604.02	13178.68
604.22	13252.41
604.41	13547.31
604.60	13856.56
604.80	13975.34
604.99	14051.11
605.18	14303.01
605.38	14253.86
605.57	14409.51
605.76	14260.01
605.96	14489.38
606.15	14569.25
606.34	14634.78
606.54	14429.99
606.73	14325.54
606.92	13944.62
607.12	13768.49
607.31	13403.96
607.50	12885.82
607.70	12928.83
607.89	12480.32
608.08	12547.90
608.28	12357.44
608.47	11876.17
608.66	11997.00
608.85	12187.46
609.05	12238.66
609.24	12199.75
609.43	12123.98
609.63	11972.43
609.82	12234.57
610.01	12126.02
610.21	12427.07
610.40	12324.68
610.59	12324.68
610.79	12285.76
610.98	12181.32
611.17	12046.15
611.36	12291.91
611.56	12560.19
611.75	12318.53
611.94	12379.97
612.14	12453.70
612.33	12566.34
612.52	12631.87
612.71	12486.47
612.91	12416.83
613.10	12633.92
613.29	12975.93
613.49	13242.17
613.68	13645.62
613.87	13963.05
614.06	13567.79
614.26	13707.05
614.45	13434.68
614.64	13215.54
614.83	13119.29
615.03	12785.47
615.22	12734.27
615.41	12578.62
615.60	12480.32
615.80	12193.61
615.99	12230.47
616.18	11835.21
616.38	11962.19
616.57	11769.68
616.76	12064.58
616.95	11939.66
617.15	11921.23
617.34	11857.74
617.53	12044.10
617.72	11863.88
617.92	12048.20
618.11	11956.04
618.30	11827.02
618.49	12214.09
618.68	12187.46
618.88	12375.88
619.07	12205.89
619.26	12289.86
619.45	12091.21
619.65	11999.05
619.84	11831.12
620.03	11827.02
620.22	11906.89
620.42	12216.13
620.61	12578.62
620.80	12795.71
620.99	12990.27
621.18	12988.22
621.38	12844.86
621.57	12760.89
621.76	13092.66
621.95	13068.09
622.15	12779.32
622.34	13076.28
622.53	12683.07
622.72	12764.99
622.91	12994.36
623.11	13176.63
623.30	13080.38
623.49	13117.24
623.68	13117.24
623.87	12818.24
624.07	12918.59
624.26	12783.42
624.45	12820.28
624.64	12906.30
624.83	12599.10
625.03	12650.30
625.22	12793.66
625.41	12715.84
625.60	12762.94
625.79	12959.55
625.98	12894.01
626.18	12683.07
626.37	13000.51
626.56	13008.70
626.75	12984.12
626.94	12689.21
627.14	12511.04
627.33	12597.06
627.52	12797.76
627.71	12627.78
627.90	12588.86
628.09	12676.93
628.29	12980.03
628.48	12822.33
628.67	12808.00
628.86	12879.68
629.05	12836.67
629.24	12697.41
629.43	12595.01
629.63	12318.53
629.82	12621.63
630.01	12465.99
630.20	12289.86
630.39	12293.96
630.58	12349.25
630.78	12064.58
630.97	11931.47
631.16	12101.45
631.35	11925.32
631.54	11988.81
631.73	11736.91
631.92	11919.18
632.11	11939.66
632.31	11878.22
632.50	11988.81
632.69	11634.51
632.88	11994.95
633.07	11769.68
633.26	11941.71
633.45	11788.11
633.65	12150.60
633.84	11923.27
634.03	11849.55
634.22	11630.41
634.41	11814.73
634.60	11886.41
634.79	12007.24
634.98	12275.52
635.17	12189.51
635.37	12189.51
635.56	12394.31
635.75	12285.76
635.94	12074.82
636.13	11937.61
636.32	11992.90
636.51	11925.32
636.70	11831.12
636.89	11980.62
637.08	11892.55
637.28	11732.81
637.47	11888.46
637.66	11798.35
637.85	11997.00
638.04	11898.70
638.23	11816.78
638.42	11859.79
638.61	11851.60
638.80	11689.81
638.99	11771.72
639.18	11878.22
639.38	11843.40
639.57	12060.49
639.76	12019.53
639.95	11831.12
640.14	11814.73
640.33	11802.44
640.52	11867.98
640.71	11855.69
640.90	11698.00
641.09	11648.85
641.28	11562.83
641.47	11927.37
641.66	11800.40
641.85	11726.67
642.04	11751.24
642.24	11906.89
642.43	11788.11
642.62	12150.60
642.81	12017.48
643.00	11820.88
643.19	11865.93
643.38	11962.19
643.57	11745.10
643.76	11976.52
643.95	11972.43
644.14	11712.33
644.33	11908.94
644.52	11841.36
644.71	11908.94
644.90	11577.17
645.09	11671.37
645.28	11853.64
645.47	12105.54
645.66	11863.88
645.85	11566.93
646.04	11710.29
646.23	11962.19
646.42	11970.38
646.61	12025.67
646.80	11949.90
646.99	12138.31
647.18	12271.43
647.37	12681.02
647.56	12463.94
647.75	12595.01
647.95	12863.29
648.14	12912.44
648.33	12619.58
648.52	12750.65
648.71	12732.22
648.90	12781.37
649.09	12799.80
649.28	12607.30
649.47	12283.72
649.66	12447.55
649.85	12222.28
650.04	12402.50
650.23	12588.86
650.42	12281.67
650.61	12218.18
650.79	12318.53
650.98	12390.21
651.17	12566.34
651.36	12572.48
651.55	12373.83
651.74	12582.72
651.93	12595.01
652.12	12584.77
652.31	12732.22
652.50	12293.96
652.69	12871.48
652.88	12525.38
653.07	12517.18
653.26	12316.48
653.45	12638.02
653.64	12289.86
653.83	12265.28
654.02	12762.94
654.21	13463.35
654.40	15439.64
654.59	17704.69
654.78	19433.18
654.97	20936.38
655.16	21130.94
655.35	21194.43
655.54	19924.69
655.73	18558.69
655.92	16963.33
656.11	16369.41
656.30	15353.62
656.48	15017.75
656.67	14352.16
656.86	13817.65
657.05	13633.33
657.24	13549.36
657.43	13459.25
657.62	13324.08
657.81	12959.55
658.00	12996.41
658.19	12750.65
658.38	12984.12
658.57	12633.92
658.76	12670.78
658.95	12769.09
659.13	12599.10
659.32	12429.12
659.51	12515.14
659.70	12654.40
659.89	12750.65
660.08	12468.03
660.27	12726.08
660.46	12504.90
660.65	12715.84
660.84	12279.62
661.03	12558.14
661.22	12570.43
661.40	12584.77
661.59	12554.05
661.78	12472.13
661.97	12601.15
662.16	12599.10
662.35	12519.23
662.54	12506.95
662.73	12986.17
662.92	12863.29
663.11	12851.00
663.29	12971.83
663.48	12857.15
663.67	13004.60
663.86	12939.07
664.05	13227.83
664.24	12877.63
664.43	13047.61
664.62	13029.18
664.80	12920.63
664.99	12783.42
665.18	12875.58
665.37	12861.24
665.56	12996.41
665.75	12789.56
665.94	12932.92
666.13	12595.01
666.31	12918.59
666.50	12783.42
666.69	12898.11
666.88	12658.49
667.07	12957.50
667.26	12836.67
667.45	12844.86
667.63	12805.95
667.82	12975.93
668.01	13145.91
668.20	12717.89
668.39	13035.32
668.58	12840.76
668.76	13213.49
668.95	12894.01
669.14	13084.47
669.33	13074.23
669.52	13098.81
669.71	13147.96
669.90	13176.63
670.08	13485.87
670.27	13606.70
670.46	13756.21
670.65	13725.49
670.84	13905.71
671.03	13989.67
671.21	14233.38
671.40	14212.90
671.59	13877.04
671.78	13735.73
671.97	13766.45
672.15	13766.45
672.34	13389.62
672.53	13506.35
672.72	13500.21
672.91	13449.01
673.09	13625.14
673.28	13367.09
673.47	13377.33
673.66	13399.86
673.85	13223.73
674.04	13274.93
674.22	13557.55
674.41	13035.32
674.60	13403.96
674.79	13444.91
674.98	13672.24
675.16	13481.78
675.35	13733.68
675.54	13696.82
675.73	13805.36
675.91	13440.82
676.10	13682.48
676.29	13793.07
676.48	13729.58
676.67	13846.32
676.85	13918.00
677.04	13831.98
677.23	13756.21
677.42	14053.16
677.60	13987.63
677.79	13770.54
677.98	14208.81
678.17	13891.37
678.36	14157.61
678.54	13975.34
678.73	14067.50
678.92	14161.70
679.11	14427.94
679.29	14077.74
679.48	14100.26
679.67	14026.54
679.86	13788.97
680.04	13725.49
680.23	14053.16
680.42	13958.96
680.61	14126.89
680.79	14030.63
680.98	14307.11
681.17	13795.12
681.36	13852.46
681.54	13682.48
681.73	13946.67
681.92	13647.66
682.11	13782.83
682.29	13813.55
682.48	13889.32
682.67	13909.80
682.85	14071.59
683.04	14161.70
683.23	14352.16
683.42	14333.73
683.60	14513.95
683.79	14303.01
683.98	14751.52
684.17	14614.30
684.35	14837.53
684.54	14886.68
684.73	14946.08
684.91	14653.22
685.10	14794.53
685.29	14638.88
685.48	14448.42
685.66	14264.10
685.85	14339.88
686.04	14364.45
686.22	14563.11
686.41	14503.71
686.60	14407.46
686.78	14395.17
686.97	14427.94
687.16	14352.16
687.35	14286.63
687.53	14081.83
687.72	14407.46
687.91	14124.84
688.09	14364.45
688.28	14141.22
688.47	14477.09
688.65	14386.98
688.84	14470.95
689.03	14423.84
689.21	14462.76
689.40	14317.35
689.59	14292.77
689.77	13989.67
689.96	14747.42
690.15	14808.86
690.33	14663.46
690.52	14778.14
690.71	14952.22
690.89	14626.59
691.08	14671.65
691.27	14534.43
691.45	14685.98
691.64	14524.19
691.83	14728.99
692.01	14624.54
692.20	14444.32
692.39	14608.16
692.57	14661.41
692.76	14526.24
692.95	14622.50
693.13	14614.30
693.32	14450.47
693.50	14282.53
693.69	14331.69
693.88	14511.91
694.06	14368.55
694.25	14626.59
694.44	14495.52
694.62	14751.52
694.81	14747.42
695.00	14561.06
695.18	14448.42
695.37	14526.24
695.55	14831.39
695.74	14878.49
695.93	15290.13
696.11	15259.42
696.30	15431.44
696.49	15681.30
696.67	15456.02
696.86	15376.15
697.04	15253.27
697.23	15095.58
697.42	15337.24
697.60	15240.98
697.79	14937.88
697.97	14690.08
698.16	14714.66
698.35	14769.95
698.53	14749.47
698.72	14614.30
698.90	14612.26
699.09	14595.87
699.28	14423.84
699.46	14380.84
699.65	14298.92
699.83	14227.24
700.02	14450.47
700.21	14333.73
700.39	14419.75
700.58	14376.74
700.76	14604.07
700.95	14827.29
701.13	14518.05
701.32	14716.70
701.51	15025.95
701.69	15089.43
701.88	14817.05
702.06	15144.73
702.25	15130.39
702.43	14858.01
702.62	14839.58
702.81	14804.77
702.99	14503.71
703.18	14679.84
703.36	14667.55
703.55	14792.48
703.73	14806.81
703.92	14556.96
704.10	14614.30
704.29	14522.15
704.48	14427.94
704.66	14212.90
704.85	14475.04
705.03	14597.92
705.22	14645.02
705.40	14790.43
705.59	14917.40
705.77	15157.02
705.96	15345.43
706.14	15392.53
706.33	15732.50
706.51	15644.43
706.70	15789.84
706.89	15712.02
707.07	15853.33
707.26	15558.42
707.44	15886.09
707.63	15490.84
707.81	15431.44
708.00	15353.62
708.18	15085.34
708.37	15224.60
708.55	14776.09
708.74	14923.55
708.92	14833.44
709.11	14702.37
709.29	14868.25
709.48	14964.51
709.66	15075.10
709.85	14849.82
710.03	14966.56
710.22	15015.71
710.40	15132.44
710.59	14800.67
710.77	14978.84
710.96	14880.54
711.14	15030.04
711.33	14995.23
711.51	15023.90
711.70	15126.30
711.88	15466.26
712.07	15337.24
712.25	15390.49
712.44	15327.00
712.62	15322.90
712.81	15429.40
712.99	15435.54
713.18	15460.12
713.36	15251.22
713.54	15445.78
713.73	15202.07
713.91	15525.65
714.10	15632.15
714.28	15376.15
714.47	15378.20
714.65	15234.84
714.84	15101.72
715.02	15050.52
715.21	15122.20
715.39	15159.06
715.58	14778.14
715.76	14722.85
715.94	14651.17
716.13	14858.01
716.31	14812.96
716.50	14759.71
716.68	15234.84
716.87	15181.59
717.05	15355.67
717.24	15214.36
717.42	15499.03
717.60	15376.15
717.79	15331.09
717.97	15388.44
718.16	15359.77
718.34	15249.18
718.53	15380.25
718.71	15392.53
718.89	15109.91
719.08	15027.99
719.26	15165.21
719.45	15091.48
719.63	15085.34
719.82	14817.05
720.00	15130.39
720.18	15042.33
720.37	14931.74
720.55	15040.28
720.74	15077.15
720.92	15265.56
721.10	15071.00
721.29	15046.43
721.47	15181.59
721.66	14933.79
721.84	15134.49
722.02	15009.56
722.21	15105.82
722.39	15077.15
722.58	15333.14
722.76	15052.57
722.94	15015.71
723.13	14927.64
723.31	15040.28
723.50	14722.85
723.68	15079.19
723.86	14833.44
724.05	15152.92
724.23	15099.67
724.41	15277.85
724.60	15398.68
724.78	15423.25
724.97	15294.23
725.15	15433.49
725.33	15165.21
725.52	15298.33
725.70	15451.92
725.88	15433.49
726.07	15165.21
726.25	15269.66
726.44	15132.44
726.62	15339.29
726.80	15159.06
726.99	15484.69
727.17	15404.82
727.35	15427.35
727.54	15441.68
727.72	15490.84
727.90	15593.23
728.09	15564.56
728.27	15380.25
728.45	15453.97
728.64	15390.49
728.82	15462.16
729.00	15712.02
729.19	15640.34
729.37	15941.39
729.55	16234.25
729.74	16244.49
729.92	16447.24
730.10	16375.56
730.29	16410.37
730.47	16402.18
730.65	16557.83
730.84	16412.42
731.02	16209.67
731.20	16189.19
731.39	16297.74
731.57	16400.13
731.75	16162.57
731.94	15882.00
732.12	16187.14
732.30	16326.41
732.49	16480.00
732.67	16062.22
732.85	16160.52
733.03	16170.76
733.22	16494.34
733.40	16273.16
733.58	16418.57
733.77	16195.34
733.95	16389.89
734.13	16023.31
734.32	16342.79
734.50	16109.32
734.68	16355.08
734.86	16353.03
735.05	16363.27
735.23	16045.84
735.41	16348.93
735.60	16205.58
735.78	16441.09
735.96	16045.84
736.14	16342.79
736.33	15900.43
736.51	15994.64
736.69	16115.47
736.87	15871.76
737.06	16029.45
737.24	15888.14
737.42	15914.77
737.61	15904.53
737.79	16189.19
737.97	16439.05
738.15	16484.10
738.34	16338.69
738.52	16303.88
738.70	16373.51
738.88	16236.30
739.07	16181.00
739.25	15617.81
739.43	15630.10
739.61	15607.57
739.80	15490.84
739.98	15189.78
740.16	15576.85
740.34	15208.22
740.52	15337.24
740.71	15437.59
740.89	15505.17
741.07	15128.35
741.25	15691.54
741.44	15445.78
741.62	15492.88
741.80	15404.82
741.98	15718.16
742.17	15550.23
742.35	15503.12
742.53	15308.57
742.71	15392.53
742.89	15419.16
743.08	15275.80
743.26	15038.23
743.44	15122.20
743.62	15038.23
743.80	15015.71
743.99	14890.78
744.17	15052.57
744.35	14984.99
744.53	15054.62
744.71	14954.27
744.90	14741.28
745.08	14991.13
745.26	15015.71
745.44	15136.54
745.62	14974.75
745.81	15159.06
745.99	14976.80
746.17	15015.71
746.35	15216.41
746.53	15208.22
746.72	15015.71
746.90	14909.21
747.08	15126.30
747.26	14876.44
747.44	15187.74
747.62	14716.70
747.81	14978.84
747.99	15062.81
748.17	15171.35
748.35	14970.65
748.53	15165.21
748.71	15413.01
748.90	15382.29
749.08	15310.61
749.26	15415.06
749.44	15562.51
749.62	15351.57
749.80	15152.92
749.99	15591.19
750.17	15449.88
750.35	15144.73
750.53	15173.40
750.71	15533.84
750.89	15159.06
751.07	15228.70
751.26	15046.43
751.44	15245.08
751.62	15116.06
751.80	14948.12
751.98	15085.34
752.16	15132.44
752.34	15218.46
752.53	15376.15
752.71	15163.16
752.89	15138.58
753.07	15251.22
753.25	15429.40
753.43	15310.61
753.61	15099.67
753.79	15322.90
753.98	15400.72
754.16	15390.49
754.34	15460.12
754.52	15681.30
754.70	15591.19
754.88	15750.93
755.06	15961.87
755.24	16066.31
755.42	16228.10
755.60	16480.00
755.79	16852.73
755.97	16762.62
756.15	17237.75
756.33	17368.82
756.51	17876.72
756.69	17825.52
756.87	17727.22
757.05	17895.15
757.23	17731.31
757.41	17626.87
757.60	17460.98
757.78	17311.48
757.96	17530.61
758.14	17751.79
758.32	17596.15
758.50	17497.84
758.68	17569.52
758.86	17950.45
759.04	18104.04
759.22	18071.28
759.40	18394.86
759.58	18386.66
759.76	18732.77
759.94	18577.12
760.13	18697.95
760.31	18886.37
760.49	18956.00
760.67	18403.05
760.85	18874.08
761.03	18960.09
761.21	19013.34
761.39	18843.36
761.57	19341.02
761.75	19070.68
761.93	19449.56
762.11	19146.46
762.29	19703.51
762.47	19125.98
762.65	19574.49
762.83	19457.75
763.01	19695.32
763.19	19801.81
763.37	20416.20
763.55	20549.32
763.73	20831.94
763.91	20729.54
764.09	20958.91
764.27	20862.66
764.45	20907.71
764.64	20600.52
764.82	20072.14
765.00	20221.64
765.18	20375.24
765.36	19879.63
765.54	20033.23
765.72	19693.27
765.90	19805.91
766.08	19629.78
766.26	19867.34
766.44	19531.48
766.62	19801.81
766.80	19857.10
766.98	20365.00
767.16	19988.18
767.34	20715.20
767.52	20262.60
767.70	20446.92
767.88	20530.89
768.06	20571.85
768.24	20205.26
768.42	20250.32
768.60	20092.62
768.78	20035.28
768.96	19689.17
769.13	19840.72
769.31	19504.85
769.49	19717.84
769.67	19402.46
769.85	19662.55
770.03	19494.61
770.21	19461.85
770.39	19623.64
770.57	19506.90
770.75	19361.50
770.93	19334.87
771.11	19220.19
771.29	19414.74
771.47	18960.09
771.65	19046.11
771.83	18925.28
772.01	18779.87
772.19	18974.43
772.37	18902.75
772.55	18499.30
772.73	18568.93
772.91	18267.88
773.09	18783.97
773.27	18024.17
773.44	18401.00
773.62	18224.87
773.80	18216.68
773.98	18079.47
774.16	18169.58
774.34	18089.71
774.52	18030.32
774.70	18087.66
774.88	17524.47
775.06	17549.04
775.24	17764.08
775.42	17481.46
775.60	17776.37
775.78	17477.37
775.95	17594.10
776.13	17256.18
776.31	17436.41
776.49	17442.55
776.67	17217.27
776.85	17307.38
777.03	17219.32
777.21	17014.52
777.39	17446.65
777.57	17153.79
777.75	17215.23
777.92	17190.65
778.10	17225.47
778.28	16948.99
778.46	17370.87
778.64	16916.22
778.82	17131.26
779.00	16826.11
779.18	16768.77
779.36	16862.97
779.53	16803.58
779.71	17002.24
779.89	17219.32
780.07	17276.66
780.25	17196.79
780.43	17221.37
780.61	17415.93
780.79	17090.30
780.96	17286.90
781.14	16908.03
781.32	16824.06
781.50	16875.26
781.68	17041.15
781.86	16901.89
782.04	16918.27
782.21	16768.77
782.39	16566.02
782.57	16799.49
782.75	16592.64
782.93	16512.77
783.11	16383.75
783.29	16283.40
783.46	16305.93
783.64	16144.14
783.82	16267.02
784.00	16211.72
784.18	16207.62
784.36	16142.09
784.54	16185.10
784.71	16066.31
784.89	16158.47
785.07	16408.33
785.25	16168.71
785.43	16117.51
785.60	16221.96
785.78	15898.38
785.96	15806.22
786.14	15945.48
786.32	15836.94
786.50	15779.60
786.67	15769.36
786.85	15943.44
787.03	16027.40
787.21	16043.79
787.39	16086.79
787.56	16269.06
787.74	16250.63
787.92	16293.64
788.10	16228.10
788.28	16008.97
788.45	15871.76
788.63	15548.18
788.81	15763.22
788.99	15269.66
789.17	15646.48
789.34	15552.27
789.52	15327.00
789.70	15298.33
789.88	15462.16
790.06	15290.13
790.23	15509.27
790.41	15228.70
790.59	15589.14
790.77	15347.48
790.95	15552.27
791.12	15363.86
791.30	15431.44
791.48	15370.01
791.66	15283.99
791.83	15077.15
792.01	15363.86
792.19	15335.19
792.37	15281.94
792.54	15499.03
792.72	16041.74
792.90	15632.15
793.08	16033.55
793.25	16047.88
793.43	16236.30
793.61	16051.98
793.79	15931.15
793.96	15974.16
794.14	15517.46
794.32	15187.74
794.50	15521.56
794.67	15304.47
794.85	14898.97
795.03	14851.87
795.21	14640.93
795.38	14614.30
795.56	14536.48
795.74	14571.30
795.92	14636.83
796.09	14524.19
796.27	14473.00
796.45	14591.78
796.62	14429.99
796.80	14346.02
796.98	14341.93
797.16	14133.03
797.33	14532.39
797.51	14018.35
797.69	14087.98
797.86	14436.13
798.04	14237.48
798.22	14145.32
798.40	14384.93
798.57	13987.63
798.75	14067.50
798.93	13829.93
799.10	14380.84
799.28	14055.21
799.46	13997.87
799.63	13756.21
799.81	13758.25
799.99	13854.51
800.17	13727.53
800.34	13836.08
800.52	13831.98
800.70	13764.40
800.87	13883.18
801.05	13936.43
801.23	13752.11
801.40	13705.01
801.58	13625.14
801.76	13446.96
801.93	13797.17
802.11	13629.23
802.29	13766.45
802.46	13770.54
802.64	13688.62
802.82	13522.74
802.99	13651.76
803.17	13446.96
803.35	13451.06
803.52	13586.22
803.70	13422.39
803.88	13262.65
804.05	13401.91
804.23	13373.24
804.41	13276.98
804.58	13387.57
804.76	13616.94
804.94	13588.27
805.11	13864.75
805.29	13768.49
805.46	13649.71
805.64	13831.98
805.82	13868.84
805.99	13922.09
806.17	13688.62
806.35	13842.22
806.52	13567.79
806.70	13725.49
806.87	13528.88
807.05	13344.56
807.23	13563.70
807.40	13731.63
807.58	13375.28
807.76	13377.33
807.93	13293.37
808.11	13225.78
808.28	13227.83
808.46	13023.03
808.64	13090.62
808.81	13293.37
808.99	13258.55
809.16	13068.09
809.34	13068.09
809.52	13074.23
809.69	13283.13
809.87	13012.79
810.04	13035.32
810.22	13240.12
810.40	12902.20
810.57	13008.70
810.75	13031.23
810.92	12842.81
811.10	12984.12
811.28	12842.81
811.45	12951.35
811.63	13000.51
811.80	12980.03
811.98	13020.99
812.15	12996.41
812.33	12713.79
812.51	12803.90
812.68	13125.43
812.86	13092.66
813.03	13250.36
813.21	13274.93
813.38	13082.42
813.56	12980.03
813.74	12732.22
813.91	12830.52
814.09	12810.04
814.26	12586.82
814.44	12670.78
814.61	12695.36
814.79	12867.39
814.96	12764.99
815.14	12711.74
815.31	12871.48
815.49	12705.60
815.67	12769.09
815.84	12793.66
816.02	12941.11
816.19	12873.53
816.37	12816.19
816.54	12652.35
816.72	12668.73
816.89	12670.78
817.07	12306.24
817.24	12533.57
817.42	12556.10
817.59	12457.79
817.77	12517.18
817.94	12306.24
818.12	12255.04
818.29	12146.50
818.47	12558.14
818.64	12306.24
818.82	12375.88
818.99	12287.81
819.17	12435.27
819.34	12451.65
819.52	12791.61
819.69	12439.36
819.87	12611.39
820.04	12629.82
820.22	12545.86
820.39	12459.84
820.57	12406.59
820.74	12410.69
820.92	12285.76
821.09	12253.00
821.27	12234.57
821.44	12379.97
821.62	12365.64
821.79	12255.04
821.97	12332.87
822.14	12322.63
822.32	12177.22
822.49	12281.67
822.67	12296.00
822.84	11962.19
823.02	12205.89
823.19	12005.19
823.37	12105.54
823.54	12087.11
823.72	12179.27
823.89	12025.67
824.06	12183.37
824.24	12216.13
824.41	12152.65
824.59	11964.23
824.76	12123.98
824.94	12150.60
825.11	12115.78
825.29	11976.52
825.46	12052.30
825.63	12343.11
825.81	12556.10
825.98	12422.98
826.16	12468.03
826.33	12531.52
826.51	12427.07
826.68	12463.94
826.86	12435.27
827.03	12001.10
827.20	12087.11
827.38	12283.72
827.55	12181.32
827.73	12107.59
827.90	12011.34
828.07	11917.13
828.25	11968.33
828.42	11816.78
828.60	11970.38
828.77	11800.40
828.95	11485.01
829.12	11573.07
829.29	11986.76
829.47	11562.83
829.64	11759.44
829.82	11511.63
829.99	11540.30
830.16	11495.25
830.34	11603.79
830.51	11245.40
830.69	11181.91
830.86	11251.54
831.03	11331.41
831.21	11360.08
831.38	11378.51
831.55	11341.65
831.73	11325.27
831.90	11462.48
832.08	11444.05
832.25	11450.19
832.42	11280.21
832.60	11396.95
832.77	11319.12
832.94	11427.67
833.12	11417.43
833.29	11462.48
833.47	11476.82
833.64	11460.43
833.81	11470.67
833.99	11442.00
834.16	11333.46
834.33	11368.27
834.51	11257.68
834.68	11329.36
834.85	11259.73
835.03	11265.88
835.20	11325.27
835.37	11474.77
835.55	11214.68
835.72	11239.25
835.90	11380.56
836.07	11116.37
836.24	11255.64
836.42	10964.82
836.59	11118.42
836.76	11153.24
836.94	11196.25
837.11	10993.50
837.28	11208.53
837.46	11048.79
837.63	10966.87
837.80	10950.49
837.97	11171.67
838.15	10774.36
838.32	11054.94
838.49	11011.93
838.67	11036.50
838.84	10878.81
839.01	11091.80
839.19	11114.33
839.36	10893.15
839.53	10827.61
839.71	11163.48
839.88	10921.82
840.05	10919.77
840.22	11034.46
840.40	11024.22
840.57	10991.45
840.74	11013.98
840.92	10757.98
841.09	10975.06
841.26	10651.49
841.43	10995.54
841.61	10751.84
841.78	10846.04
841.95	10878.81
842.13	10884.95
842.30	10966.87
842.47	10753.88
842.64	10848.09
842.82	10755.93
842.99	10727.26
843.16	10878.81
843.34	10727.26
843.51	10751.84
843.68	10702.68
843.85	10952.54
844.03	10899.29
844.20	10805.08
844.37	10790.75
844.54	10800.99
844.72	10483.55
844.89	10792.80
845.06	10481.50
845.23	10561.37
845.41	10600.29
845.58	10647.39
845.75	10573.66
845.92	10573.66
846.10	10788.70
846.27	10579.81
846.44	10616.67
846.61	10712.92
846.78	10512.22
846.96	10399.59
847.13	10438.50
847.30	10520.42
847.47	10549.09
847.65	10469.22
847.82	10524.51
847.99	10714.97
848.16	10413.92
848.33	10458.98
848.51	10323.81
848.68	10510.18
848.85	10575.71
849.02	10311.52
849.19	10424.16
849.37	10467.17
849.54	10370.91
849.71	10266.47
849.88	10266.47
850.05	10434.40
850.23	10262.37
850.40	10467.17
850.57	10278.76
850.74	10409.83
850.91	10063.72
851.09	10493.79
851.26	10264.42
851.43	10415.97
851.60	10516.32
851.77	10338.15
851.95	10323.81
852.12	10426.21
852.29	10407.78
852.46	10241.89
852.63	10403.68
852.80	10319.71
852.98	10450.78
853.15	10252.13
853.32	10245.99
853.49	10202.98
853.66	10184.55
853.83	10168.16
854.01	10147.69
854.18	10135.40
854.35	10190.69
854.52	10235.75
854.69	10028.90
854.86	10149.73
855.03	10104.68
855.21	10200.93
855.38	10202.98
855.55	10182.50
855.72	10098.53
855.89	10137.45
856.06	10088.29
856.23	9969.51
856.41	9899.88
856.58	9863.02
856.75	9973.61
856.92	9996.14
857.09	9908.07
857.26	10004.33
857.43	9908.07
857.60	9928.55
857.78	9932.65
857.95	9680.75
858.12	9920.36
858.29	9934.70
858.46	9846.63
858.63	9801.58
858.80	9811.82
858.97	9815.91
859.14	9637.74
859.32	9584.49
859.49	9633.64
859.66	9619.31
859.83	9670.51
860.00	9504.62
860.17	9496.43
860.34	9766.76
860.51	9639.79
860.68	9518.96
860.85	9844.59
861.02	9791.34
861.20	9494.38
861.37	9437.04
861.54	9666.41
861.71	9623.41
861.88	9607.02
862.05	9441.14
862.22	9590.64
862.39	9746.28
862.56	9443.18
862.73	9330.55
862.90	9647.98
863.07	9447.28
863.24	9344.88
863.41	9385.84
863.59	9379.70
863.76	9260.91
863.93	9176.95
864.10	9228.15
864.27	9097.08
864.44	9224.05
864.61	9361.27
864.78	9213.81
864.95	9095.03
865.12	9353.07
865.29	9312.11
865.46	9092.98
865.63	9142.13
865.80	9156.47
865.97	9097.08
866.14	9217.91
866.31	9047.93
866.48	9082.74
866.65	9002.87
866.82	9021.30
866.99	9170.80
867.16	9142.13
867.33	8943.48
867.50	8906.62
867.67	8855.42
867.84	9013.11
868.01	8939.38
868.18	8992.63
868.35	8693.63
868.52	8728.44
868.69	8798.07
868.86	8789.88
869.03	8693.63
869.20	8748.92
869.37	8621.95
869.54	8634.24
869.71	8841.08
869.88	8652.67
870.05	8609.66
870.22	8628.09
870.39	8697.72
870.56	8857.46
870.73	8572.80
870.90	8396.67
871.07	8562.56
871.24	8408.96
871.41	8296.32
871.58	8558.46
871.75	8380.29
871.92	8619.90
872.09	8257.41
872.26	8370.05
872.43	8415.10
872.60	8204.16
872.77	8150.92
872.94	8294.27
873.11	7954.31
873.28	8081.28
873.45	8118.15
873.62	8118.15
873.79	8140.68
873.96	7982.98
874.13	8007.56
874.30	7917.45
874.47	7985.03
874.64	8234.88
874.80	7976.84
874.97	7978.89
875.14	8054.66
875.31	7913.35
875.48	7772.04
875.65	7780.23
875.82	7720.84
875.99	7800.71
876.16	7624.59
876.33	7782.28
876.50	7557.00
876.67	7802.76
876.84	7673.74
877.01	7413.65
877.17	7538.57
877.34	7788.43
877.51	7604.11
877.68	7397.26
877.85	7739.27
878.02	7329.68
878.19	7286.67
878.36	7567.24
878.53	7335.82
878.70	7620.49
878.87	7270.29
879.03	7442.32
879.20	7284.62
879.37	7303.06
879.54	7083.92
879.71	7387.02
879.88	7245.71
880.05	7180.18
880.22	7280.53
880.39	7090.07
880.55	6948.76
880.72	7061.40
880.89	6942.61
881.06	7063.44
881.23	6842.26
881.40	6991.77
881.57	6778.78
881.74	6852.50
881.90	6834.07
882.07	6756.25
882.24	6754.20
882.41	6743.96
882.58	6684.57
882.75	6739.87
882.92	6563.74
883.08	6487.96
883.25	6668.19
883.42	6612.89
883.59	6645.66
883.76	6551.45
883.93	6567.84
884.09	6295.46
884.26	6541.21
884.43	6401.95
884.60	6457.25
884.77	6467.49
884.94	6363.04
885.10	6195.11
885.27	6352.80
885.44	6434.72
885.61	6303.65
885.78	6315.94
885.95	6231.97
886.11	6184.87
886.28	6088.61
886.45	5990.31
886.62	5996.45
886.79	5984.16
886.96	5869.48
887.12	5980.07
887.29	5926.82
887.46	5939.11
887.63	5904.29
887.80	5769.13
887.96	5746.60
888.13	5754.79
888.30	5816.23
888.47	5803.94
888.64	5609.39
888.80	5500.84
888.97	5478.32
889.14	5664.68
889.31	5650.35
889.47	5484.46
889.64	5359.53
889.81	5439.40
889.98	5406.64
890.15	5345.20
890.31	5388.21
890.48	5388.21
890.65	5388.21
890.82	5388.21
890.98	5388.21
891.15	5388.21
>>>>>End Processed Spectral Data<<<<<
