SpectraSuite Data File
++++++++++++++++++++++++++++++++++++
Date: Fri Jan 24 17:07:27 MST 2020
User: Molly
Dark Spectrum Present: Yes
Reference Spectrum Present: Yes
Number of Sampled Component Spectra: 1
Spectrometers: USB4E03280
Integration Time (usec): 32000 (USB4E03280)
Spectra Averaged: 1 (USB4E03280)
Boxcar Smoothing: 0 (USB4E03280)
Correct for Electrical Dark: No (USB4E03280)
Strobe/Lamp Enabled: Yes (USB4E03280)
Correct for Detector Non-linearity: No (USB4E03280)
Correct for Stray Light: No (USB4E03280)
Number of Pixels in Processed Spectrum: 3648
>>>>>Begin Processed Spectral Data<<<<<
177.66	1138.67
177.88	1138.67
178.10	1138.67
178.32	1163.25
178.54	1255.40
178.76	1284.08
178.98	1310.70
179.19	1200.11
179.41	1181.68
179.63	1259.50
179.85	1189.87
180.07	1302.51
180.29	1232.88
180.51	1220.59
180.72	1185.77
180.94	1232.88
181.16	1181.68
181.38	1216.49
181.60	1251.31
181.82	1112.05
182.04	1232.88
182.25	1263.60
182.47	1257.45
182.69	1286.12
182.91	1181.68
183.13	1263.60
183.35	1253.36
183.56	1216.49
183.78	1222.64
184.00	1243.12
184.22	1316.84
184.44	1191.92
184.66	1296.36
184.87	1228.78
185.09	1239.02
185.31	1200.11
185.53	1224.69
185.75	1234.93
185.97	1255.40
186.18	1263.60
186.40	1249.26
186.62	1226.73
186.84	1236.97
187.06	1224.69
187.28	1275.88
187.49	1206.25
187.71	1253.36
187.93	1224.69
188.15	1200.11
188.37	1253.36
188.59	1222.64
188.80	1171.44
189.02	1300.46
189.24	1343.47
189.46	1218.54
189.68	1220.59
189.89	1187.82
190.11	1189.87
190.33	1251.31
190.55	1269.74
190.77	1134.57
190.98	1218.54
191.20	1314.80
191.42	1253.36
191.64	1249.26
191.86	1208.30
192.07	1155.05
192.29	1218.54
192.51	1220.59
192.73	1255.40
192.95	1204.21
193.16	1259.50
193.38	1228.78
193.60	1232.88
193.82	1245.16
194.04	1220.59
194.25	1275.88
194.47	1191.92
194.69	1279.98
194.91	1144.81
195.13	1208.30
195.34	1222.64
195.56	1224.69
195.78	1218.54
196.00	1290.22
196.22	1212.40
196.43	1253.36
196.65	1218.54
196.87	1204.21
197.09	1210.35
197.30	1247.21
197.52	1222.64
197.74	1226.73
197.96	1200.11
198.18	1220.59
198.39	1239.02
198.61	1212.40
198.83	1241.07
199.05	1222.64
199.26	1191.92
199.48	1306.60
199.70	1228.78
199.92	1157.10
200.13	1267.69
200.35	1216.49
200.57	1257.45
200.79	1183.73
201.00	1296.36
201.22	1222.64
201.44	1187.82
201.66	1198.06
201.88	1226.73
202.09	1206.25
202.31	1294.32
202.53	1206.25
202.75	1155.05
202.96	1243.12
203.18	1294.32
203.40	1204.21
203.62	1226.73
203.83	1273.84
204.05	1202.16
204.27	1224.69
204.49	1232.88
204.70	1193.97
204.92	1265.64
205.14	1224.69
205.35	1275.88
205.57	1277.93
205.79	1193.97
206.01	1232.88
206.22	1204.21
206.44	1216.49
206.66	1212.40
206.88	1222.64
207.09	1273.84
207.31	1312.75
207.53	1251.31
207.75	1200.11
207.96	1222.64
208.18	1257.45
208.40	1204.21
208.61	1196.01
208.83	1239.02
209.05	1224.69
209.27	1206.25
209.48	1222.64
209.70	1241.07
209.92	1220.59
210.14	1253.36
210.35	1279.98
210.57	1218.54
210.79	1259.50
211.00	1243.12
211.22	1300.46
211.44	1206.25
211.66	1263.60
211.87	1185.77
212.09	1212.40
212.31	1202.16
212.52	1179.63
212.74	1222.64
212.96	1187.82
213.17	1232.88
213.39	1251.31
213.61	1232.88
213.83	1249.26
214.04	1236.97
214.26	1226.73
214.48	1245.16
214.69	1282.03
214.91	1198.06
215.13	1292.27
215.34	1183.73
215.56	1288.17
215.78	1247.21
216.00	1259.50
216.21	1245.16
216.43	1200.11
216.65	1136.62
216.86	1132.53
217.08	1296.36
217.30	1353.71
217.51	1263.60
217.73	1257.45
217.95	1257.45
218.16	1200.11
218.38	1253.36
218.60	1187.82
218.81	1181.68
219.03	1251.31
219.25	1304.56
219.46	1234.93
219.68	1300.46
219.90	1183.73
220.11	1292.27
220.33	1230.83
220.55	1222.64
220.76	1257.45
220.98	1271.79
221.20	1253.36
221.41	1261.55
221.63	1208.30
221.85	1249.26
222.06	1208.30
222.28	1263.60
222.50	1247.21
222.71	1214.45
222.93	1302.51
223.15	1245.16
223.36	1171.44
223.58	1269.74
223.80	1198.06
224.01	1257.45
224.23	1267.69
224.45	1267.69
224.66	1294.32
224.88	1212.40
225.10	1292.27
225.31	1177.58
225.53	1234.93
225.75	1234.93
225.96	1236.97
226.18	1296.36
226.39	1224.69
226.61	1226.73
226.83	1208.30
227.04	1214.45
227.26	1230.83
227.48	1263.60
227.69	1216.49
227.91	1228.78
228.13	1234.93
228.34	1273.84
228.56	1271.79
228.77	1196.01
228.99	1247.21
229.21	1257.45
229.42	1243.12
229.64	1253.36
229.86	1222.64
230.07	1206.25
230.29	1155.05
230.50	1214.45
230.72	1239.02
230.94	1200.11
231.15	1288.17
231.37	1282.03
231.58	1214.45
231.80	1302.51
232.02	1142.77
232.23	1251.31
232.45	1204.21
232.67	1277.93
232.88	1177.58
233.10	1206.25
233.31	1218.54
233.53	1204.21
233.75	1239.02
233.96	1218.54
234.18	1273.84
234.39	1265.64
234.61	1236.97
234.83	1306.60
235.04	1185.77
235.26	1198.06
235.47	1163.25
235.69	1202.16
235.91	1216.49
236.12	1212.40
236.34	1191.92
236.55	1265.64
236.77	1259.50
236.99	1150.96
237.20	1216.49
237.42	1212.40
237.63	1208.30
237.85	1208.30
238.06	1157.10
238.28	1234.93
238.50	1286.12
238.71	1196.01
238.93	1228.78
239.14	1222.64
239.36	1251.31
239.58	1228.78
239.79	1216.49
240.01	1239.02
240.22	1218.54
240.44	1208.30
240.65	1175.53
240.87	1279.98
241.09	1179.63
241.30	1179.63
241.52	1239.02
241.73	1245.16
241.95	1183.73
242.16	1234.93
242.38	1218.54
242.59	1200.11
242.81	1269.74
243.03	1230.83
243.24	1212.40
243.46	1239.02
243.67	1181.68
243.89	1228.78
244.10	1191.92
244.32	1196.01
244.53	1204.21
244.75	1175.53
244.97	1277.93
245.18	1216.49
245.40	1241.07
245.61	1202.16
245.83	1173.49
246.04	1200.11
246.26	1218.54
246.47	1232.88
246.69	1206.25
246.90	1284.08
247.12	1236.97
247.34	1187.82
247.55	1257.45
247.77	1189.87
247.98	1261.55
248.20	1204.21
248.41	1279.98
248.63	1181.68
248.84	1263.60
249.06	1218.54
249.27	1200.11
249.49	1118.19
249.70	1279.98
249.92	1222.64
250.13	1202.16
250.35	1185.77
250.56	1261.55
250.78	1245.16
251.00	1200.11
251.21	1275.88
251.43	1241.07
251.64	1230.83
251.86	1220.59
252.07	1249.26
252.29	1228.78
252.50	1163.25
252.72	1234.93
252.93	1204.21
253.15	1257.45
253.36	1310.70
253.58	1261.55
253.79	1187.82
254.01	1183.73
254.22	1198.06
254.44	1208.30
254.65	1236.97
254.87	1247.21
255.08	1271.79
255.30	1216.49
255.51	1148.91
255.73	1210.35
255.94	1226.73
256.16	1296.36
256.37	1196.01
256.59	1257.45
256.80	1202.16
257.02	1241.07
257.23	1245.16
257.45	1222.64
257.66	1228.78
257.88	1204.21
258.09	1134.57
258.31	1185.77
258.52	1212.40
258.74	1310.70
258.95	1222.64
259.16	1179.63
259.38	1165.29
259.59	1294.32
259.81	1234.93
260.02	1206.25
260.24	1208.30
260.45	1210.35
260.67	1210.35
260.88	1300.46
261.10	1259.50
261.31	1118.19
261.53	1259.50
261.74	1163.25
261.96	1179.63
262.17	1200.11
262.39	1177.58
262.60	1261.55
262.81	1255.40
263.03	1222.64
263.24	1292.27
263.46	1253.36
263.67	1269.74
263.89	1230.83
264.10	1245.16
264.32	1224.69
264.53	1222.64
264.75	1288.17
264.96	1290.22
265.17	1247.21
265.39	1212.40
265.60	1193.97
265.82	1148.91
266.03	1265.64
266.25	1193.97
266.46	1196.01
266.68	1196.01
266.89	1216.49
267.10	1210.35
267.32	1202.16
267.53	1271.79
267.75	1175.53
267.96	1232.88
268.18	1239.02
268.39	1247.21
268.61	1212.40
268.82	1208.30
269.03	1175.53
269.25	1236.97
269.46	1265.64
269.68	1236.97
269.89	1236.97
270.11	1212.40
270.32	1249.26
270.53	1234.93
270.75	1220.59
270.96	1187.82
271.18	1232.88
271.39	1216.49
271.60	1251.31
271.82	1206.25
272.03	1251.31
272.25	1226.73
272.46	1239.02
272.68	1267.69
272.89	1202.16
273.10	1196.01
273.32	1302.51
273.53	1236.97
273.75	1267.69
273.96	1185.77
274.17	1257.45
274.39	1189.87
274.60	1243.12
274.82	1259.50
275.03	1275.88
275.24	1169.39
275.46	1261.55
275.67	1208.30
275.89	1263.60
276.10	1239.02
276.31	1273.84
276.53	1265.64
276.74	1202.16
276.96	1261.55
277.17	1259.50
277.38	1179.63
277.60	1204.21
277.81	1198.06
278.02	1261.55
278.24	1232.88
278.45	1179.63
278.67	1210.35
278.88	1255.40
279.09	1251.31
279.31	1200.11
279.52	1236.97
279.73	1239.02
279.95	1204.21
280.16	1243.12
280.38	1216.49
280.59	1230.83
280.80	1263.60
281.02	1161.20
281.23	1228.78
281.44	1214.45
281.66	1187.82
281.87	1236.97
282.09	1251.31
282.30	1263.60
282.51	1253.36
282.73	1200.11
282.94	1226.73
283.15	1187.82
283.37	1167.34
283.58	1255.40
283.79	1228.78
284.01	1243.12
284.22	1253.36
284.43	1253.36
284.65	1253.36
284.86	1277.93
285.07	1212.40
285.29	1232.88
285.50	1214.45
285.72	1185.77
285.93	1202.16
286.14	1247.21
286.36	1249.26
286.57	1279.98
286.78	1187.82
287.00	1198.06
287.21	1210.35
287.42	1169.39
287.64	1173.49
287.85	1282.03
288.06	1196.01
288.28	1374.19
288.49	1257.45
288.70	1275.88
288.92	1273.84
289.13	1257.45
289.34	1224.69
289.56	1286.12
289.77	1239.02
289.98	1230.83
290.19	1257.45
290.41	1269.74
290.62	1200.11
290.83	1234.93
291.05	1255.40
291.26	1247.21
291.47	1212.40
291.69	1234.93
291.90	1204.21
292.11	1249.26
292.33	1232.88
292.54	1224.69
292.75	1228.78
292.97	1318.89
293.18	1212.40
293.39	1222.64
293.60	1191.92
293.82	1286.12
294.03	1265.64
294.24	1249.26
294.46	1236.97
294.67	1220.59
294.88	1206.25
295.10	1196.01
295.31	1165.29
295.52	1214.45
295.73	1230.83
295.95	1249.26
296.16	1234.93
296.37	1236.97
296.59	1216.49
296.80	1269.74
297.01	1169.39
297.22	1232.88
297.44	1294.32
297.65	1150.96
297.86	1196.01
298.08	1296.36
298.29	1214.45
298.50	1224.69
298.71	1226.73
298.93	1284.08
299.14	1204.21
299.35	1275.88
299.56	1251.31
299.78	1226.73
299.99	1228.78
300.20	1230.83
300.42	1243.12
300.63	1226.73
300.84	1218.54
301.05	1191.92
301.27	1230.83
301.48	1212.40
301.69	1206.25
301.90	1202.16
302.12	1263.60
302.33	1296.36
302.54	1189.87
302.75	1200.11
302.97	1263.60
303.18	1234.93
303.39	1253.36
303.60	1239.02
303.82	1179.63
304.03	1214.45
304.24	1193.97
304.45	1222.64
304.67	1247.21
304.88	1247.21
305.09	1236.97
305.30	1179.63
305.52	1228.78
305.73	1284.08
305.94	1163.25
306.15	1177.58
306.37	1253.36
306.58	1310.70
306.79	1200.11
307.00	1282.03
307.22	1230.83
307.43	1232.88
307.64	1181.68
307.85	1226.73
308.06	1183.73
308.28	1228.78
308.49	1257.45
308.70	1257.45
308.91	1294.32
309.13	1253.36
309.34	1234.93
309.55	1243.12
309.76	1230.83
309.97	1232.88
310.19	1275.88
310.40	1224.69
310.61	1198.06
310.82	1210.35
311.04	1269.74
311.25	1257.45
311.46	1329.13
311.67	1208.30
311.88	1343.47
312.10	1220.59
312.31	1245.16
312.52	1210.35
312.73	1259.50
312.94	1196.01
313.16	1253.36
313.37	1171.44
313.58	1247.21
313.79	1210.35
314.00	1255.40
314.22	1253.36
314.43	1183.73
314.64	1189.87
314.85	1294.32
315.06	1171.44
315.27	1236.97
315.49	1163.25
315.70	1222.64
315.91	1273.84
316.12	1198.06
316.33	1224.69
316.55	1300.46
316.76	1245.16
316.97	1228.78
317.18	1251.31
317.39	1236.97
317.60	1261.55
317.82	1153.01
318.03	1249.26
318.24	1202.16
318.45	1284.08
318.66	1261.55
318.88	1220.59
319.09	1206.25
319.30	1210.35
319.51	1310.70
319.72	1282.03
319.93	1245.16
320.15	1200.11
320.36	1296.36
320.57	1163.25
320.78	1236.97
320.99	1265.64
321.20	1175.53
321.41	1193.97
321.63	1216.49
321.84	1224.69
322.05	1294.32
322.26	1261.55
322.47	1224.69
322.68	1249.26
322.90	1243.12
323.11	1277.93
323.32	1171.44
323.53	1243.12
323.74	1196.01
323.95	1224.69
324.16	1226.73
324.38	1322.99
324.59	1247.21
324.80	1269.74
325.01	1153.01
325.22	1300.46
325.43	1261.55
325.64	1292.27
325.85	1298.41
326.07	1206.25
326.28	1208.30
326.49	1224.69
326.70	1251.31
326.91	1279.98
327.12	1138.67
327.33	1222.64
327.54	1310.70
327.76	1282.03
327.97	1308.65
328.18	1259.50
328.39	1249.26
328.60	1241.07
328.81	1236.97
329.02	1265.64
329.23	1261.55
329.45	1271.79
329.66	1208.30
329.87	1236.97
330.08	1236.97
330.29	1206.25
330.50	1167.34
330.71	1267.69
330.92	1167.34
331.13	1263.60
331.34	1277.93
331.56	1339.37
331.77	1271.79
331.98	1216.49
332.19	1267.69
332.40	1275.88
332.61	1247.21
332.82	1204.21
333.03	1253.36
333.24	1222.64
333.45	1177.58
333.67	1255.40
333.88	1226.73
334.09	1318.89
334.30	1183.73
334.51	1265.64
334.72	1189.87
334.93	1208.30
335.14	1255.40
335.35	1183.73
335.56	1271.79
335.77	1198.06
335.98	1298.41
336.19	1243.12
336.41	1296.36
336.62	1245.16
336.83	1228.78
337.04	1206.25
337.25	1296.36
337.46	1243.12
337.67	1259.50
337.88	1230.83
338.09	1226.73
338.30	1269.74
338.51	1179.63
338.72	1265.64
338.93	1259.50
339.14	1243.12
339.35	1261.55
339.57	1273.84
339.78	1298.41
339.99	1196.01
340.20	1269.74
340.41	1273.84
340.62	1202.16
340.83	1269.74
341.04	1296.36
341.25	1191.92
341.46	1224.69
341.67	1208.30
341.88	1259.50
342.09	1277.93
342.30	1257.45
342.51	1239.02
342.72	1241.07
342.93	1261.55
343.14	1261.55
343.35	1128.43
343.56	1167.34
343.77	1236.97
343.98	1204.21
344.19	1275.88
344.41	1269.74
344.62	1282.03
344.83	1210.35
345.04	1200.11
345.25	1224.69
345.46	1310.70
345.67	1204.21
345.88	1253.36
346.09	1196.01
346.30	1255.40
346.51	1165.29
346.72	1193.97
346.93	1298.41
347.14	1308.65
347.35	1216.49
347.56	1202.16
347.77	1204.21
347.98	1277.93
348.19	1187.82
348.40	1284.08
348.61	1189.87
348.82	1271.79
349.03	1236.97
349.24	1196.01
349.45	1196.01
349.66	1175.53
349.87	1226.73
350.08	1251.31
350.29	1245.16
350.50	1189.87
350.71	1216.49
350.92	1191.92
351.13	1286.12
351.34	1228.78
351.55	1222.64
351.76	1269.74
351.97	1279.98
352.18	1255.40
352.39	1216.49
352.60	1271.79
352.81	1249.26
353.02	1210.35
353.23	1226.73
353.44	1255.40
353.65	1269.74
353.86	1296.36
354.07	1198.06
354.28	1224.69
354.49	1226.73
354.70	1249.26
354.90	1251.31
355.11	1226.73
355.32	1312.75
355.53	1202.16
355.74	1232.88
355.95	1175.53
356.16	1200.11
356.37	1236.97
356.58	1261.55
356.79	1191.92
357.00	1245.16
357.21	1277.93
357.42	1239.02
357.63	1249.26
357.84	1191.92
358.05	1327.08
358.26	1191.92
358.47	1243.12
358.68	1312.75
358.89	1222.64
359.10	1230.83
359.31	1155.05
359.52	1173.49
359.73	1185.77
359.93	1185.77
360.14	1271.79
360.35	1212.40
360.56	1196.01
360.77	1236.97
360.98	1179.63
361.19	1243.12
361.40	1218.54
361.61	1308.65
361.82	1247.21
362.03	1230.83
362.24	1196.01
362.45	1185.77
362.66	1243.12
362.87	1286.12
363.07	1171.44
363.28	1261.55
363.49	1279.98
363.70	1224.69
363.91	1284.08
364.12	1263.60
364.33	1189.87
364.54	1290.22
364.75	1275.88
364.96	1310.70
365.17	1230.83
365.38	1179.63
365.58	1243.12
365.79	1273.84
366.00	1232.88
366.21	1224.69
366.42	1155.05
366.63	1228.78
366.84	1294.32
367.05	1214.45
367.26	1302.51
367.47	1212.40
367.67	1261.55
367.88	1310.70
368.09	1228.78
368.30	1288.17
368.51	1320.94
368.72	1196.01
368.93	1255.40
369.14	1273.84
369.35	1269.74
369.56	1183.73
369.76	1253.36
369.97	1259.50
370.18	1224.69
370.39	1204.21
370.60	1286.12
370.81	1277.93
371.02	1247.21
371.23	1140.72
371.43	1171.44
371.64	1159.15
371.85	1320.94
372.06	1179.63
372.27	1232.88
372.48	1183.73
372.69	1232.88
372.90	1191.92
373.10	1224.69
373.31	1234.93
373.52	1294.32
373.73	1222.64
373.94	1206.25
374.15	1284.08
374.36	1206.25
374.56	1232.88
374.77	1236.97
374.98	1257.45
375.19	1220.59
375.40	1239.02
375.61	1218.54
375.82	1245.16
376.02	1234.93
376.23	1222.64
376.44	1257.45
376.65	1146.86
376.86	1234.93
377.07	1187.82
377.28	1243.12
377.48	1286.12
377.69	1269.74
377.90	1206.25
378.11	1247.21
378.32	1218.54
378.53	1239.02
378.73	1261.55
378.94	1239.02
379.15	1224.69
379.36	1196.01
379.57	1222.64
379.78	1257.45
379.98	1218.54
380.19	1247.21
380.40	1202.16
380.61	1216.49
380.82	1208.30
381.03	1236.97
381.23	1253.36
381.44	1253.36
381.65	1189.87
381.86	1230.83
382.07	1294.32
382.27	1259.50
382.48	1204.21
382.69	1312.75
382.90	1284.08
383.11	1239.02
383.32	1296.36
383.52	1232.88
383.73	1302.51
383.94	1241.07
384.15	1253.36
384.36	1236.97
384.56	1206.25
384.77	1245.16
384.98	1241.07
385.19	1161.20
385.40	1251.31
385.60	1294.32
385.81	1224.69
386.02	1284.08
386.23	1275.88
386.43	1288.17
386.64	1232.88
386.85	1263.60
387.06	1294.32
387.27	1214.45
387.47	1243.12
387.68	1226.73
387.89	1249.26
388.10	1220.59
388.31	1191.92
388.51	1187.82
388.72	1273.84
388.93	1241.07
389.14	1226.73
389.34	1277.93
389.55	1265.64
389.76	1267.69
389.97	1230.83
390.18	1191.92
390.38	1286.12
390.59	1253.36
390.80	1214.45
391.01	1277.93
391.21	1253.36
391.42	1200.11
391.63	1263.60
391.84	1300.46
392.04	1198.06
392.25	1228.78
392.46	1241.07
392.67	1200.11
392.87	1247.21
393.08	1230.83
393.29	1345.52
393.50	1247.21
393.70	1306.60
393.91	1234.93
394.12	1255.40
394.33	1189.87
394.53	1279.98
394.74	1212.40
394.95	1210.35
395.16	1206.25
395.36	1224.69
395.57	1290.22
395.78	1153.01
395.99	1222.64
396.19	1198.06
396.40	1263.60
396.61	1290.22
396.81	1292.27
397.02	1253.36
397.23	1232.88
397.44	1247.21
397.64	1214.45
397.85	1263.60
398.06	1177.58
398.27	1218.54
398.47	1271.79
398.68	1220.59
398.89	1208.30
399.09	1239.02
399.30	1228.78
399.51	1241.07
399.72	1253.36
399.92	1300.46
400.13	1230.83
400.34	1257.45
400.54	1210.35
400.75	1226.73
400.96	1259.50
401.17	1239.02
401.37	1232.88
401.58	1259.50
401.79	1193.97
401.99	1185.77
402.20	1177.58
402.41	1261.55
402.61	1286.12
402.82	1189.87
403.03	1249.26
403.24	1187.82
403.44	1202.16
403.65	1224.69
403.86	1290.22
404.06	1261.55
404.27	1257.45
404.48	1193.97
404.68	1302.51
404.89	1216.49
405.10	1269.74
405.30	1226.73
405.51	1220.59
405.72	1200.11
405.92	1224.69
406.13	1220.59
406.34	1284.08
406.54	1228.78
406.75	1226.73
406.96	1208.30
407.16	1218.54
407.37	1251.31
407.58	1263.60
407.78	1236.97
407.99	1247.21
408.20	1183.73
408.40	1294.32
408.61	1177.58
408.82	1265.64
409.02	1241.07
409.23	1241.07
409.44	1218.54
409.64	1200.11
409.85	1308.65
410.06	1173.49
410.26	1132.53
410.47	1196.01
410.68	1298.41
410.88	1261.55
411.09	1173.49
411.30	1224.69
411.50	1253.36
411.71	1187.82
411.91	1210.35
412.12	1255.40
412.33	1228.78
412.53	1279.98
412.74	1234.93
412.95	1251.31
413.15	1204.21
413.36	1198.06
413.57	1277.93
413.77	1279.98
413.98	1175.53
414.18	1261.55
414.39	1232.88
414.60	1355.76
414.80	1218.54
415.01	1251.31
415.22	1196.01
415.42	1249.26
415.63	1161.20
415.83	1245.16
416.04	1167.34
416.25	1183.73
416.45	1214.45
416.66	1165.29
416.86	1185.77
417.07	1253.36
417.28	1177.58
417.48	1236.97
417.69	1173.49
417.89	1214.45
418.10	1200.11
418.31	1212.40
418.51	1271.79
418.72	1261.55
418.92	1185.77
419.13	1284.08
419.34	1286.12
419.54	1286.12
419.75	1224.69
419.95	1226.73
420.16	1236.97
420.37	1300.46
420.57	1196.01
420.78	1146.86
420.98	1294.32
421.19	1202.16
421.40	1161.20
421.60	1261.55
421.81	1206.25
422.01	1273.84
422.22	1247.21
422.42	1230.83
422.63	1257.45
422.84	1230.83
423.04	1265.64
423.25	1304.56
423.45	1222.64
423.66	1265.64
423.86	1232.88
424.07	1228.78
424.28	1214.45
424.48	1153.01
424.69	1185.77
424.89	1245.16
425.10	1286.12
425.30	1286.12
425.51	1251.31
425.72	1267.69
425.92	1220.59
426.13	1241.07
426.33	1249.26
426.54	1243.12
426.74	1224.69
426.95	1308.65
427.15	1187.82
427.36	1228.78
427.56	1167.34
427.77	1257.45
427.98	1249.26
428.18	1298.41
428.39	1228.78
428.59	1224.69
428.80	1200.11
429.00	1259.50
429.21	1163.25
429.41	1179.63
429.62	1269.74
429.82	1269.74
430.03	1222.64
430.23	1245.16
430.44	1288.17
430.65	1290.22
430.85	1325.04
431.06	1218.54
431.26	1267.69
431.47	1173.49
431.67	1257.45
431.88	1210.35
432.08	1236.97
432.29	1255.40
432.49	1191.92
432.70	1284.08
432.90	1198.06
433.11	1261.55
433.31	1239.02
433.52	1239.02
433.72	1263.60
433.93	1251.31
434.13	1284.08
434.34	1277.93
434.54	1220.59
434.75	1212.40
434.95	1284.08
435.16	1257.45
435.36	1220.59
435.57	1210.35
435.77	1165.29
435.98	1228.78
436.18	1255.40
436.39	1253.36
436.59	1267.69
436.80	1218.54
437.00	1189.87
437.21	1249.26
437.41	1165.29
437.62	1189.87
437.82	1245.16
438.03	1167.34
438.23	1210.35
438.44	1222.64
438.64	1253.36
438.85	1241.07
439.05	1255.40
439.25	1198.06
439.46	1206.25
439.66	1226.73
439.87	1218.54
440.07	1200.11
440.28	1191.92
440.48	1167.34
440.69	1269.74
440.89	1234.93
441.10	1282.03
441.30	1200.11
441.51	1232.88
441.71	1189.87
441.92	1222.64
442.12	1239.02
442.32	1236.97
442.53	1202.16
442.73	1269.74
442.94	1191.92
443.14	1228.78
443.35	1249.26
443.55	1216.49
443.76	1210.35
443.96	1271.79
444.16	1245.16
444.37	1214.45
444.57	1263.60
444.78	1220.59
444.98	1273.84
445.19	1189.87
445.39	1200.11
445.60	1269.74
445.80	1236.97
446.00	1239.02
446.21	1187.82
446.41	1220.59
446.62	1212.40
446.82	1257.45
447.03	1277.93
447.23	1193.97
447.43	1251.31
447.64	1282.03
447.84	1288.17
448.05	1204.21
448.25	1265.64
448.45	1275.88
448.66	1279.98
448.86	1312.75
449.07	1271.79
449.27	1267.69
449.48	1255.40
449.68	1228.78
449.88	1257.45
450.09	1196.01
450.29	1290.22
450.50	1261.55
450.70	1181.68
450.90	1193.97
451.11	1234.93
451.31	1261.55
451.52	1263.60
451.72	1261.55
451.92	1157.10
452.13	1210.35
452.33	1269.74
452.54	1255.40
452.74	1257.45
452.94	1322.99
453.15	1171.44
453.35	1234.93
453.55	1245.16
453.76	1249.26
453.96	1253.36
454.17	1204.21
454.37	1259.50
454.57	1175.53
454.78	1259.50
454.98	1261.55
455.19	1261.55
455.39	1206.25
455.59	1269.74
455.80	1212.40
456.00	1226.73
456.20	1226.73
456.41	1271.79
456.61	1247.21
456.81	1249.26
457.02	1175.53
457.22	1245.16
457.43	1206.25
457.63	1226.73
457.83	1171.44
458.04	1257.45
458.24	1200.11
458.44	1222.64
458.65	1222.64
458.85	1136.62
459.05	1232.88
459.26	1185.77
459.46	1234.93
459.66	1265.64
459.87	1185.77
460.07	1245.16
460.27	1234.93
460.48	1234.93
460.68	1255.40
460.88	1251.31
461.09	1196.01
461.29	1263.60
461.49	1218.54
461.70	1290.22
461.90	1148.91
462.10	1222.64
462.31	1169.39
462.51	1259.50
462.71	1236.97
462.92	1208.30
463.12	1206.25
463.32	1191.92
463.53	1245.16
463.73	1249.26
463.93	1263.60
464.14	1204.21
464.34	1267.69
464.54	1228.78
464.75	1279.98
464.95	1286.12
465.15	1206.25
465.36	1253.36
465.56	1196.01
465.76	1224.69
465.96	1251.31
466.17	1329.13
466.37	1269.74
466.57	1226.73
466.78	1263.60
466.98	1224.69
467.18	1181.68
467.39	1200.11
467.59	1189.87
467.79	1243.12
467.99	1226.73
468.20	1259.50
468.40	1214.45
468.60	1245.16
468.81	1189.87
469.01	1325.04
469.21	1171.44
469.41	1171.44
469.62	1322.99
469.82	1234.93
470.02	1208.30
470.23	1236.97
470.43	1146.86
470.63	1255.40
470.83	1181.68
471.04	1230.83
471.24	1243.12
471.44	1251.31
471.65	1263.60
471.85	1269.74
472.05	1288.17
472.25	1198.06
472.46	1288.17
472.66	1196.01
472.86	1234.93
473.06	1214.45
473.27	1214.45
473.47	1269.74
473.67	1191.92
473.87	1218.54
474.08	1255.40
474.28	1214.45
474.48	1290.22
474.68	1263.60
474.89	1214.45
475.09	1249.26
475.29	1257.45
475.49	1271.79
475.70	1220.59
475.90	1230.83
476.10	1171.44
476.30	1212.40
476.51	1249.26
476.71	1275.88
476.91	1191.92
477.11	1234.93
477.32	1273.84
477.52	1255.40
477.72	1193.97
477.92	1183.73
478.12	1204.21
478.33	1220.59
478.53	1298.41
478.73	1234.93
478.93	1318.89
479.14	1277.93
479.34	1265.64
479.54	1275.88
479.74	1224.69
479.94	1185.77
480.15	1241.07
480.35	1286.12
480.55	1257.45
480.75	1257.45
480.96	1234.93
481.16	1226.73
481.36	1251.31
481.56	1290.22
481.76	1261.55
481.97	1279.98
482.17	1271.79
482.37	1220.59
482.57	1228.78
482.77	1277.93
482.98	1216.49
483.18	1196.01
483.38	1296.36
483.58	1273.84
483.78	1234.93
483.98	1310.70
484.19	1296.36
484.39	1167.34
484.59	1275.88
484.79	1279.98
484.99	1212.40
485.20	1173.49
485.40	1261.55
485.60	1294.32
485.80	1275.88
486.00	1224.69
486.20	1322.99
486.41	1193.97
486.61	1255.40
486.81	1259.50
487.01	1232.88
487.21	1187.82
487.42	1245.16
487.62	1279.98
487.82	1208.30
488.02	1306.60
488.22	1236.97
488.42	1284.08
488.62	1273.84
488.83	1216.49
489.03	1335.28
489.23	1300.46
489.43	1122.29
489.63	1230.83
489.83	1216.49
490.04	1304.56
490.24	1261.55
490.44	1159.15
490.64	1234.93
490.84	1216.49
491.04	1224.69
491.24	1243.12
491.45	1245.16
491.65	1251.31
491.85	1241.07
492.05	1265.64
492.25	1300.46
492.45	1247.21
492.65	1236.97
492.86	1220.59
493.06	1234.93
493.26	1198.06
493.46	1204.21
493.66	1277.93
493.86	1234.93
494.06	1302.51
494.26	1236.97
494.47	1241.07
494.67	1191.92
494.87	1261.55
495.07	1232.88
495.27	1300.46
495.47	1187.82
495.67	1265.64
495.87	1271.79
496.07	1269.74
496.28	1314.80
496.48	1232.88
496.68	1251.31
496.88	1171.44
497.08	1271.79
497.28	1247.21
497.48	1226.73
497.68	1222.64
497.88	1269.74
498.08	1245.16
498.29	1163.25
498.49	1273.84
498.69	1212.40
498.89	1230.83
499.09	1230.83
499.29	1232.88
499.49	1212.40
499.69	1247.21
499.89	1230.83
500.09	1206.25
500.29	1247.21
500.50	1212.40
500.70	1253.36
500.90	1228.78
501.10	1228.78
501.30	1196.01
501.50	1196.01
501.70	1302.51
501.90	1275.88
502.10	1181.68
502.30	1273.84
502.50	1314.80
502.70	1249.26
502.90	1236.97
503.10	1208.30
503.31	1200.11
503.51	1249.26
503.71	1304.56
503.91	1306.60
504.11	1206.25
504.31	1175.53
504.51	1273.84
504.71	1185.77
504.91	1257.45
505.11	1214.45
505.31	1214.45
505.51	1263.60
505.71	1243.12
505.91	1236.97
506.11	1202.16
506.31	1208.30
506.51	1175.53
506.71	1228.78
506.91	1253.36
507.11	1263.60
507.31	1298.41
507.51	1277.93
507.72	1191.92
507.92	1294.32
508.12	1249.26
508.32	1249.26
508.52	1226.73
508.72	1298.41
508.92	1251.31
509.12	1212.40
509.32	1243.12
509.52	1220.59
509.72	1286.12
509.92	1222.64
510.12	1212.40
510.32	1257.45
510.52	1284.08
510.72	1210.35
510.92	1187.82
511.12	1185.77
511.32	1234.93
511.52	1179.63
511.72	1212.40
511.92	1247.21
512.12	1325.04
512.32	1241.07
512.52	1275.88
512.72	1275.88
512.92	1212.40
513.12	1269.74
513.32	1267.69
513.52	1271.79
513.72	1279.98
513.92	1214.45
514.12	1298.41
514.32	1261.55
514.52	1228.78
514.72	1241.07
514.92	1236.97
515.12	1198.06
515.32	1216.49
515.52	1232.88
515.72	1222.64
515.92	1228.78
516.12	1267.69
516.32	1267.69
516.52	1206.25
516.72	1196.01
516.92	1218.54
517.12	1191.92
517.32	1282.03
517.51	1216.49
517.71	1259.50
517.91	1169.39
518.11	1239.02
518.31	1173.49
518.51	1273.84
518.71	1318.89
518.91	1218.54
519.11	1245.16
519.31	1271.79
519.51	1261.55
519.71	1296.36
519.91	1239.02
520.11	1208.30
520.31	1222.64
520.51	1191.92
520.71	1277.93
520.91	1269.74
521.11	1163.25
521.31	1245.16
521.51	1282.03
521.70	1183.73
521.90	1214.45
522.10	1230.83
522.30	1204.21
522.50	1253.36
522.70	1228.78
522.90	1314.80
523.10	1204.21
523.30	1339.37
523.50	1249.26
523.70	1245.16
523.90	1306.60
524.10	1286.12
524.30	1259.50
524.49	1267.69
524.69	1253.36
524.89	1269.74
525.09	1245.16
525.29	1236.97
525.49	1265.64
525.69	1218.54
525.89	1241.07
526.09	1267.69
526.29	1218.54
526.49	1232.88
526.68	1245.16
526.88	1243.12
527.08	1218.54
527.28	1279.98
527.48	1322.99
527.68	1257.45
527.88	1159.15
528.08	1236.97
528.28	1271.79
528.48	1275.88
528.67	1243.12
528.87	1259.50
529.07	1193.97
529.27	1339.37
529.47	1196.01
529.67	1226.73
529.87	1277.93
530.07	1273.84
530.26	1279.98
530.46	1269.74
530.66	1261.55
530.86	1267.69
531.06	1286.12
531.26	1243.12
531.46	1302.51
531.66	1257.45
531.85	1279.98
532.05	1277.93
532.25	1226.73
532.45	1210.35
532.65	1316.84
532.85	1286.12
533.05	1259.50
533.25	1302.51
533.44	1232.88
533.64	1325.04
533.84	1181.68
534.04	1294.32
534.24	1228.78
534.44	1296.36
534.63	1263.60
534.83	1296.36
535.03	1273.84
535.23	1216.49
535.43	1247.21
535.63	1196.01
535.83	1290.22
536.02	1191.92
536.22	1230.83
536.42	1185.77
536.62	1224.69
536.82	1257.45
537.02	1337.32
537.21	1279.98
537.41	1284.08
537.61	1288.17
537.81	1222.64
538.01	1361.90
538.21	1232.88
538.40	1329.13
538.60	1214.45
538.80	1298.41
539.00	1357.80
539.20	1327.08
539.39	1277.93
539.59	1314.80
539.79	1398.76
539.99	1357.80
540.19	1398.76
540.39	1331.18
540.58	1325.04
540.78	1433.58
540.98	1378.28
541.18	1388.52
541.38	1464.30
541.57	1431.53
541.77	1402.86
541.97	1505.26
542.17	1492.97
542.37	1460.20
542.56	1488.87
542.76	1488.87
542.96	1466.35
543.16	1400.81
543.35	1456.11
543.55	1482.73
543.75	1429.48
543.95	1462.25
544.15	1535.98
544.34	1488.87
544.54	1533.93
544.74	1572.84
544.94	1572.84
545.14	1480.68
545.33	1538.02
545.53	1427.43
545.73	1472.49
545.93	1429.48
546.12	1351.66
546.32	1449.96
546.52	1386.47
546.72	1349.61
546.91	1351.66
547.11	1427.43
547.31	1394.67
547.51	1415.15
547.70	1462.25
547.90	1343.47
548.10	1380.33
548.30	1400.81
548.50	1374.19
548.69	1255.40
548.89	1320.94
549.09	1366.00
549.29	1277.93
549.48	1366.00
549.68	1314.80
549.88	1298.41
550.07	1390.57
550.27	1345.52
550.47	1388.52
550.67	1316.84
550.86	1325.04
551.06	1353.71
551.26	1322.99
551.46	1288.17
551.65	1292.27
551.85	1417.19
552.05	1351.66
552.25	1400.81
552.44	1417.19
552.64	1310.70
552.84	1329.13
553.03	1292.27
553.23	1275.88
553.43	1327.08
553.63	1310.70
553.82	1275.88
554.02	1359.85
554.22	1335.28
554.41	1316.84
554.61	1255.40
554.81	1316.84
555.01	1353.71
555.20	1224.69
555.40	1251.31
555.60	1325.04
555.79	1333.23
555.99	1308.65
556.19	1296.36
556.38	1314.80
556.58	1368.04
556.78	1335.28
556.98	1261.55
557.17	1322.99
557.37	1243.12
557.57	1239.02
557.76	1282.03
557.96	1327.08
558.16	1273.84
558.35	1253.36
558.55	1277.93
558.75	1322.99
558.94	1282.03
559.14	1312.75
559.34	1361.90
559.53	1226.73
559.73	1290.22
559.93	1325.04
560.12	1269.74
560.32	1298.41
560.52	1284.08
560.71	1273.84
560.91	1286.12
561.11	1314.80
561.30	1296.36
561.50	1206.25
561.70	1304.56
561.89	1257.45
562.09	1370.09
562.29	1298.41
562.48	1284.08
562.68	1255.40
562.88	1236.97
563.07	1292.27
563.27	1298.41
563.47	1279.98
563.66	1363.95
563.86	1327.08
564.06	1322.99
564.25	1322.99
564.45	1318.89
564.64	1298.41
564.84	1251.31
565.04	1275.88
565.23	1318.89
565.43	1234.93
565.63	1269.74
565.82	1218.54
566.02	1267.69
566.22	1273.84
566.41	1286.12
566.61	1247.21
566.80	1343.47
567.00	1249.26
567.20	1320.94
567.39	1251.31
567.59	1234.93
567.78	1296.36
567.98	1253.36
568.18	1245.16
568.37	1282.03
568.57	1357.80
568.77	1347.56
568.96	1265.64
569.16	1404.91
569.35	1239.02
569.55	1345.52
569.75	1269.74
569.94	1359.85
570.14	1314.80
570.33	1361.90
570.53	1329.13
570.73	1316.84
570.92	1314.80
571.12	1302.51
571.31	1310.70
571.51	1286.12
571.71	1265.64
571.90	1296.36
572.10	1353.71
572.29	1267.69
572.49	1288.17
572.68	1269.74
572.88	1337.32
573.08	1282.03
573.27	1310.70
573.47	1357.80
573.66	1290.22
573.86	1294.32
574.05	1261.55
574.25	1275.88
574.45	1361.90
574.64	1265.64
574.84	1337.32
575.03	1298.41
575.23	1312.75
575.42	1357.80
575.62	1380.33
575.82	1261.55
576.01	1257.45
576.21	1325.04
576.40	1322.99
576.60	1353.71
576.79	1325.04
576.99	1327.08
577.18	1343.47
577.38	1304.56
577.57	1339.37
577.77	1368.04
577.97	1370.09
578.16	1325.04
578.36	1337.32
578.55	1357.80
578.75	1306.60
578.94	1325.04
579.14	1396.71
579.33	1341.42
579.53	1363.95
579.72	1435.63
579.92	1355.76
580.11	1398.76
580.31	1382.38
580.50	1398.76
580.70	1345.52
580.90	1325.04
581.09	1329.13
581.29	1417.19
581.48	1382.38
581.68	1368.04
581.87	1335.28
582.07	1333.23
582.26	1374.19
582.46	1361.90
582.65	1390.57
582.85	1433.58
583.04	1382.38
583.24	1460.20
583.43	1376.24
583.63	1361.90
583.82	1398.76
584.02	1464.30
584.21	1310.70
584.41	1388.52
584.60	1404.91
584.80	1404.91
584.99	1339.37
585.19	1394.67
585.38	1355.76
585.58	1388.52
585.77	1368.04
585.97	1368.04
586.16	1439.72
586.35	1419.24
586.55	1404.91
586.74	1374.19
586.94	1361.90
587.13	1361.90
587.33	1361.90
587.52	1376.24
587.72	1349.61
587.91	1388.52
588.11	1417.19
588.30	1357.80
588.50	1331.18
588.69	1390.57
588.89	1349.61
589.08	1261.55
589.28	1337.32
589.47	1331.18
589.66	1370.09
589.86	1333.23
590.05	1380.33
590.25	1345.52
590.44	1333.23
590.64	1351.66
590.83	1343.47
591.03	1296.36
591.22	1359.85
591.41	1261.55
591.61	1363.95
591.80	1390.57
592.00	1437.67
592.19	1445.87
592.39	1378.28
592.58	1359.85
592.78	1419.24
592.97	1347.56
593.16	1273.84
593.36	1474.54
593.55	1368.04
593.75	1341.42
593.94	1304.56
594.14	1296.36
594.33	1333.23
594.52	1308.65
594.72	1384.43
594.91	1314.80
595.11	1318.89
595.30	1306.60
595.49	1351.66
595.69	1306.60
595.88	1261.55
596.08	1312.75
596.27	1368.04
596.47	1351.66
596.66	1296.36
596.85	1316.84
597.05	1333.23
597.24	1337.32
597.44	1282.03
597.63	1353.71
597.82	1353.71
598.02	1351.66
598.21	1366.00
598.40	1396.71
598.60	1353.71
598.79	1333.23
598.99	1333.23
599.18	1388.52
599.37	1376.24
599.57	1392.62
599.76	1359.85
599.96	1327.08
600.15	1298.41
600.34	1349.61
600.54	1279.98
600.73	1359.85
600.92	1351.66
601.12	1316.84
601.31	1335.28
601.51	1341.42
601.70	1343.47
601.89	1302.51
602.09	1329.13
602.28	1374.19
602.47	1296.36
602.67	1298.41
602.86	1294.32
603.05	1310.70
603.25	1310.70
603.44	1316.84
603.63	1314.80
603.83	1284.08
604.02	1302.51
604.22	1335.28
604.41	1292.27
604.60	1372.14
604.80	1300.46
604.99	1325.04
605.18	1402.86
605.38	1300.46
605.57	1357.80
605.76	1392.62
605.96	1300.46
606.15	1341.42
606.34	1329.13
606.54	1349.61
606.73	1351.66
606.92	1357.80
607.12	1302.51
607.31	1390.57
607.50	1314.80
607.70	1339.37
607.89	1337.32
608.08	1271.79
608.28	1351.66
608.47	1366.00
608.66	1302.51
608.85	1304.56
609.05	1372.14
609.24	1335.28
609.43	1388.52
609.63	1513.45
609.82	1464.30
610.01	1568.74
610.21	1585.13
610.40	1523.69
610.59	1511.40
610.79	1527.78
610.98	1497.07
611.17	1468.39
611.36	1513.45
611.56	1490.92
611.75	1499.11
611.94	1404.91
612.14	1411.05
612.33	1449.96
612.52	1380.33
612.71	1476.59
612.91	1337.32
613.10	1447.91
613.29	1417.19
613.49	1339.37
613.68	1427.43
613.87	1372.14
614.06	1390.57
614.26	1411.05
614.45	1368.04
614.64	1372.14
614.83	1390.57
615.03	1349.61
615.22	1339.37
615.41	1292.27
615.60	1345.52
615.80	1296.36
615.99	1335.28
616.18	1384.43
616.38	1374.19
616.57	1339.37
616.76	1327.08
616.95	1302.51
617.15	1361.90
617.34	1331.18
617.53	1282.03
617.72	1329.13
617.92	1308.65
618.11	1261.55
618.30	1312.75
618.49	1310.70
618.68	1353.71
618.88	1271.79
619.07	1382.38
619.26	1351.66
619.45	1191.92
619.65	1378.28
619.84	1282.03
620.03	1296.36
620.22	1355.76
620.42	1366.00
620.61	1361.90
620.80	1271.79
620.99	1363.95
621.18	1347.56
621.38	1343.47
621.57	1374.19
621.76	1404.91
621.95	1296.36
622.15	1325.04
622.34	1322.99
622.53	1275.88
622.72	1257.45
622.91	1359.85
623.11	1331.18
623.30	1322.99
623.49	1318.89
623.68	1261.55
623.87	1343.47
624.07	1368.04
624.26	1306.60
624.45	1300.46
624.64	1302.51
624.83	1355.76
625.03	1306.60
625.22	1329.13
625.41	1347.56
625.60	1263.60
625.79	1298.41
625.98	1337.32
626.18	1296.36
626.37	1294.32
626.56	1327.08
626.75	1269.74
626.94	1316.84
627.14	1239.02
627.33	1316.84
627.52	1331.18
627.71	1263.60
627.90	1277.93
628.09	1300.46
628.29	1314.80
628.48	1263.60
628.67	1312.75
628.86	1277.93
629.05	1366.00
629.24	1327.08
629.43	1331.18
629.63	1380.33
629.82	1275.88
630.01	1296.36
630.20	1247.21
630.39	1284.08
630.58	1243.12
630.78	1302.51
630.97	1271.79
631.16	1335.28
631.35	1222.64
631.54	1304.56
631.73	1355.76
631.92	1333.23
632.11	1366.00
632.31	1316.84
632.50	1292.27
632.69	1255.40
632.88	1253.36
633.07	1294.32
633.26	1349.61
633.45	1236.97
633.65	1302.51
633.84	1263.60
634.03	1228.78
634.22	1247.21
634.41	1255.40
634.60	1314.80
634.79	1257.45
634.98	1275.88
635.17	1286.12
635.37	1322.99
635.56	1263.60
635.75	1239.02
635.94	1267.69
636.13	1261.55
636.32	1320.94
636.51	1327.08
636.70	1222.64
636.89	1302.51
637.08	1224.69
637.28	1222.64
637.47	1179.63
637.66	1261.55
637.85	1255.40
638.04	1288.17
638.23	1286.12
638.42	1251.31
638.61	1308.65
638.80	1275.88
638.99	1232.88
639.18	1300.46
639.38	1277.93
639.57	1216.49
639.76	1271.79
639.95	1241.07
640.14	1284.08
640.33	1288.17
640.52	1275.88
640.71	1279.98
640.90	1200.11
641.09	1245.16
641.28	1261.55
641.47	1359.85
641.66	1253.36
641.85	1269.74
642.04	1269.74
642.24	1279.98
642.43	1232.88
642.62	1482.73
642.81	1310.70
643.00	1292.27
643.19	1335.28
643.38	1241.07
643.57	1279.98
643.76	1234.93
643.95	1267.69
644.14	1243.12
644.33	1232.88
644.52	1271.79
644.71	1359.85
644.90	1294.32
645.09	1284.08
645.28	1243.12
645.47	1212.40
645.66	1212.40
645.85	1286.12
646.04	1286.12
646.23	1193.97
646.42	1310.70
646.61	1236.97
646.80	1251.31
646.99	1265.64
647.18	1259.50
647.37	1267.69
647.56	1253.36
647.75	1241.07
647.95	1261.55
648.14	1255.40
648.33	1290.22
648.52	1284.08
648.71	1275.88
648.90	1193.97
649.09	1286.12
649.28	1247.21
649.47	1251.31
649.66	1234.93
649.85	1269.74
650.04	1318.89
650.23	1341.42
650.42	1220.59
650.61	1259.50
650.79	1245.16
650.98	1236.97
651.17	1292.27
651.36	1183.73
651.55	1245.16
651.74	1241.07
651.93	1261.55
652.12	1267.69
652.31	1163.25
652.50	1183.73
652.69	1241.07
652.88	1290.22
653.07	1249.26
653.26	1267.69
653.45	1282.03
653.64	1220.59
653.83	1212.40
654.02	1198.06
654.21	1329.13
654.40	1265.64
654.59	1269.74
654.78	1302.51
654.97	1333.23
655.16	1255.40
655.35	1259.50
655.54	1384.43
655.73	1247.21
655.92	1284.08
656.11	1284.08
656.30	1310.70
656.48	1249.26
656.67	1273.84
656.86	1245.16
657.05	1345.52
657.24	1255.40
657.43	1230.83
657.62	1245.16
657.81	1261.55
658.00	1206.25
658.19	1255.40
658.38	1353.71
658.57	1265.64
658.76	1333.23
658.95	1249.26
659.13	1241.07
659.32	1265.64
659.51	1308.65
659.70	1275.88
659.89	1230.83
660.08	1329.13
660.27	1234.93
660.46	1269.74
660.65	1255.40
660.84	1275.88
661.03	1202.16
661.22	1196.01
661.40	1236.97
661.59	1253.36
661.78	1245.16
661.97	1196.01
662.16	1251.31
662.35	1298.41
662.54	1294.32
662.73	1249.26
662.92	1286.12
663.11	1314.80
663.29	1249.26
663.48	1202.16
663.67	1304.56
663.86	1228.78
664.05	1232.88
664.24	1345.52
664.43	1253.36
664.62	1298.41
664.80	1298.41
664.99	1306.60
665.18	1343.47
665.37	1214.45
665.56	1318.89
665.75	1269.74
665.94	1298.41
666.13	1259.50
666.31	1286.12
666.50	1255.40
666.69	1191.92
666.88	1294.32
667.07	1241.07
667.26	1212.40
667.45	1273.84
667.63	1200.11
667.82	1249.26
668.01	1279.98
668.20	1232.88
668.39	1232.88
668.58	1200.11
668.76	1191.92
668.95	1269.74
669.14	1196.01
669.33	1253.36
669.52	1288.17
669.71	1261.55
669.90	1245.16
670.08	1312.75
670.27	1302.51
670.46	1296.36
670.65	1282.03
670.84	1257.45
671.03	1286.12
671.21	1277.93
671.40	1218.54
671.59	1247.21
671.78	1296.36
671.97	1286.12
672.15	1277.93
672.34	1257.45
672.53	1296.36
672.72	1261.55
672.91	1263.60
673.09	1316.84
673.28	1241.07
673.47	1245.16
673.66	1316.84
673.85	1333.23
674.04	1271.79
674.22	1279.98
674.41	1257.45
674.60	1210.35
674.79	1273.84
674.98	1241.07
675.16	1288.17
675.35	1298.41
675.54	1308.65
675.73	1282.03
675.91	1249.26
676.10	1286.12
676.29	1224.69
676.48	1261.55
676.67	1333.23
676.85	1230.83
677.04	1312.75
677.23	1210.35
677.42	1282.03
677.60	1232.88
677.79	1236.97
677.98	1294.32
678.17	1343.47
678.36	1304.56
678.54	1271.79
678.73	1302.51
678.92	1302.51
679.11	1298.41
679.29	1302.51
679.48	1306.60
679.67	1271.79
679.86	1288.17
680.04	1267.69
680.23	1312.75
680.42	1265.64
680.61	1329.13
680.79	1273.84
680.98	1228.78
681.17	1288.17
681.36	1275.88
681.54	1322.99
681.73	1263.60
681.92	1325.04
682.11	1298.41
682.29	1257.45
682.48	1314.80
682.67	1325.04
682.85	1353.71
683.04	1327.08
683.23	1302.51
683.42	1355.76
683.60	1345.52
683.79	1322.99
683.98	1322.99
684.17	1298.41
684.35	1329.13
684.54	1241.07
684.73	1271.79
684.91	1400.81
685.10	1320.94
685.29	1366.00
685.48	1331.18
685.66	1271.79
685.85	1271.79
686.04	1345.52
686.22	1380.33
686.41	1296.36
686.60	1339.37
686.78	1282.03
686.97	1368.04
687.16	1310.70
687.35	1318.89
687.53	1288.17
687.72	1316.84
687.91	1345.52
688.09	1306.60
688.28	1290.22
688.47	1263.60
688.65	1372.14
688.84	1249.26
689.03	1261.55
689.21	1343.47
689.40	1337.32
689.59	1290.22
689.77	1314.80
689.96	1357.80
690.15	1294.32
690.33	1329.13
690.52	1374.19
690.71	1400.81
690.89	1314.80
691.08	1327.08
691.27	1306.60
691.45	1339.37
691.64	1345.52
691.83	1333.23
692.01	1400.81
692.20	1261.55
692.39	1370.09
692.57	1335.28
692.76	1347.56
692.95	1347.56
693.13	1388.52
693.32	1320.94
693.50	1329.13
693.69	1366.00
693.88	1380.33
694.06	1339.37
694.25	1361.90
694.44	1275.88
694.62	1398.76
694.81	1343.47
695.00	1376.24
695.18	1413.10
695.37	1355.76
695.55	1325.04
695.74	1343.47
695.93	1406.95
696.11	1478.63
696.30	1370.09
696.49	1380.33
696.67	1318.89
696.86	1439.72
697.04	1353.71
697.23	1359.85
697.42	1327.08
697.60	1458.15
697.79	1361.90
697.97	1366.00
698.16	1308.65
698.35	1343.47
698.53	1312.75
698.72	1378.28
698.90	1417.19
699.09	1386.47
699.28	1415.15
699.46	1482.73
699.65	1337.32
699.83	1322.99
700.02	1361.90
700.21	1376.24
700.39	1318.89
700.58	1380.33
700.76	1327.08
700.95	1427.43
701.13	1380.33
701.32	1376.24
701.51	1355.76
701.69	1404.91
701.88	1374.19
702.06	1384.43
702.25	1351.66
702.43	1388.52
702.62	1363.95
702.81	1413.10
702.99	1374.19
703.18	1433.58
703.36	1359.85
703.55	1355.76
703.73	1355.76
703.92	1380.33
704.10	1376.24
704.29	1406.95
704.48	1335.28
704.66	1368.04
704.85	1435.63
705.03	1378.28
705.22	1380.33
705.40	1409.00
705.59	1505.26
705.77	1413.10
705.96	1421.29
706.14	1447.91
706.33	1499.11
706.51	1478.63
706.70	1380.33
706.89	1433.58
707.07	1521.64
707.26	1411.05
707.44	1357.80
707.63	1464.30
707.81	1411.05
708.00	1396.71
708.18	1435.63
708.37	1503.21
708.55	1431.53
708.74	1452.01
708.92	1361.90
709.11	1431.53
709.29	1449.96
709.48	1456.11
709.66	1402.86
709.85	1355.76
710.03	1431.53
710.22	1433.58
710.40	1468.39
710.59	1384.43
710.77	1423.34
710.96	1423.34
711.14	1468.39
711.33	1433.58
711.51	1441.77
711.70	1384.43
711.88	1411.05
712.07	1429.48
712.25	1421.29
712.44	1521.64
712.62	1382.38
712.81	1415.15
712.99	1478.63
713.18	1460.20
713.36	1392.62
713.54	1400.81
713.73	1370.09
713.91	1335.28
714.10	1409.00
714.28	1343.47
714.47	1464.30
714.65	1472.49
714.84	1376.24
715.02	1366.00
715.21	1376.24
715.39	1361.90
715.58	1396.71
715.76	1398.76
715.94	1390.57
716.13	1355.76
716.31	1343.47
716.50	1474.54
716.68	1378.28
716.87	1413.10
717.05	1382.38
717.24	1433.58
717.42	1441.77
717.60	1472.49
717.79	1425.39
717.97	1374.19
718.16	1368.04
718.34	1402.86
718.53	1441.77
718.71	1443.82
718.89	1421.29
719.08	1415.15
719.26	1458.15
719.45	1480.68
719.63	1368.04
719.82	1386.47
720.00	1394.67
720.18	1443.82
720.37	1382.38
720.55	1425.39
720.74	1388.52
720.92	1339.37
721.10	1374.19
721.29	1347.56
721.47	1411.05
721.66	1462.25
721.84	1386.47
722.02	1409.00
722.21	1355.76
722.39	1382.38
722.58	1363.95
722.76	1363.95
722.94	1409.00
723.13	1396.71
723.31	1421.29
723.50	1327.08
723.68	1392.62
723.86	1419.24
724.05	1404.91
724.23	1452.01
724.41	1316.84
724.60	1380.33
724.78	1370.09
724.97	1384.43
725.15	1417.19
725.33	1368.04
725.52	1370.09
725.70	1366.00
725.88	1386.47
726.07	1421.29
726.25	1409.00
726.44	1353.71
726.62	1429.48
726.80	1400.81
726.99	1417.19
727.17	1335.28
727.35	1390.57
727.54	1409.00
727.72	1423.34
727.90	1402.86
728.09	1443.82
728.27	1466.35
728.45	1398.76
728.64	1419.24
728.82	1425.39
729.00	1421.29
729.19	1400.81
729.37	1320.94
729.55	1390.57
729.74	1437.67
729.92	1441.77
730.10	1452.01
730.29	1458.15
730.47	1447.91
730.65	1398.76
730.84	1378.28
731.02	1353.71
731.20	1478.63
731.39	1366.00
731.57	1415.15
731.75	1458.15
731.94	1392.62
732.12	1392.62
732.30	1480.68
732.49	1415.15
732.67	1460.20
732.85	1511.40
733.03	1406.95
733.22	1396.71
733.40	1497.07
733.58	1452.01
733.77	1435.63
733.95	1394.67
734.13	1380.33
734.32	1503.21
734.50	1386.47
734.68	1445.87
734.86	1505.26
735.05	1378.28
735.23	1398.76
735.41	1423.34
735.60	1421.29
735.78	1390.57
735.96	1390.57
736.14	1386.47
736.33	1409.00
736.51	1466.35
736.69	1497.07
736.87	1445.87
737.06	1374.19
737.24	1398.76
737.42	1454.06
737.61	1409.00
737.79	1423.34
737.97	1388.52
738.15	1435.63
738.34	1337.32
738.52	1439.72
738.70	1404.91
738.88	1439.72
739.07	1456.11
739.25	1415.15
739.43	1437.67
739.61	1406.95
739.80	1460.20
739.98	1370.09
740.16	1394.67
740.34	1443.82
740.52	1337.32
740.71	1415.15
740.89	1411.05
741.07	1421.29
741.25	1421.29
741.44	1433.58
741.62	1386.47
741.80	1437.67
741.98	1468.39
742.17	1454.06
742.35	1433.58
742.53	1316.84
742.71	1351.66
742.89	1423.34
743.08	1402.86
743.26	1449.96
743.44	1355.76
743.62	1406.95
743.80	1406.95
743.99	1409.00
744.17	1402.86
744.35	1413.10
744.53	1413.10
744.71	1347.56
744.90	1423.34
745.08	1384.43
745.26	1351.66
745.44	1460.20
745.62	1394.67
745.81	1413.10
745.99	1466.35
746.17	1327.08
746.35	1400.81
746.53	1370.09
746.72	1366.00
746.90	1460.20
747.08	1437.67
747.26	1386.47
747.44	1413.10
747.62	1404.91
747.81	1458.15
747.99	1413.10
748.17	1429.48
748.35	1505.26
748.53	1433.58
748.71	1402.86
748.90	1413.10
749.08	1454.06
749.26	1366.00
749.44	1398.76
749.62	1417.19
749.80	1337.32
749.99	1427.43
750.17	1337.32
750.35	1353.71
750.53	1415.15
750.71	1431.53
750.89	1419.24
751.07	1409.00
751.26	1394.67
751.44	1439.72
751.62	1359.85
751.80	1409.00
751.98	1384.43
752.16	1449.96
752.34	1392.62
752.53	1404.91
752.71	1437.67
752.89	1441.77
753.07	1443.82
753.25	1320.94
753.43	1499.11
753.61	1441.77
753.79	1437.67
753.98	1474.54
754.16	1419.24
754.34	1398.76
754.52	1423.34
754.70	1415.15
754.88	1490.92
755.06	1468.39
755.24	1386.47
755.42	1452.01
755.60	1519.59
755.79	1400.81
755.97	1425.39
756.15	1390.57
756.33	1355.76
756.51	1470.44
756.69	1425.39
756.87	1460.20
757.05	1515.50
757.23	1406.95
757.41	1462.25
757.60	1435.63
757.78	1435.63
757.96	1398.76
758.14	1511.40
758.32	1376.24
758.50	1396.71
758.68	1359.85
758.86	1415.15
759.04	1435.63
759.22	1441.77
759.40	1460.20
759.58	1445.87
759.76	1478.63
759.94	1484.78
760.13	1470.44
760.31	1511.40
760.49	1421.29
760.67	1384.43
760.85	1499.11
761.03	1388.52
761.21	1542.12
761.39	1427.43
761.57	1519.59
761.75	1458.15
761.93	1533.93
762.11	1447.91
762.29	1454.06
762.47	1439.72
762.65	1474.54
762.83	1515.50
763.01	1472.49
763.19	1425.39
763.37	1402.86
763.55	1519.59
763.73	1437.67
763.91	1476.59
764.09	1542.12
764.27	1492.97
764.45	1572.84
764.64	1505.26
764.82	1501.16
765.00	1550.31
765.18	1472.49
765.36	1550.31
765.54	1542.12
765.72	1427.43
765.90	1439.72
766.08	1439.72
766.26	1441.77
766.44	1454.06
766.62	1474.54
766.80	1503.21
766.98	1546.22
767.16	1607.66
767.34	1480.68
767.52	1433.58
767.70	1464.30
767.88	1431.53
768.06	1501.16
768.24	1492.97
768.42	1472.49
768.60	1447.91
768.78	1433.58
768.96	1445.87
769.13	1488.87
769.31	1447.91
769.49	1529.83
769.67	1466.35
769.85	1497.07
770.03	1447.91
770.21	1480.68
770.39	1388.52
770.57	1468.39
770.75	1470.44
770.93	1415.15
771.11	1445.87
771.29	1394.67
771.47	1437.67
771.65	1480.68
771.83	1427.43
772.01	1480.68
772.19	1411.05
772.37	1443.82
772.55	1464.30
772.73	1445.87
772.91	1431.53
773.09	1447.91
773.27	1423.34
773.44	1531.88
773.62	1429.48
773.80	1447.91
773.98	1454.06
774.16	1415.15
774.34	1437.67
774.52	1439.72
774.70	1421.29
774.88	1390.57
775.06	1458.15
775.24	1382.38
775.42	1462.25
775.60	1460.20
775.78	1492.97
775.95	1474.54
776.13	1462.25
776.31	1519.59
776.49	1392.62
776.67	1464.30
776.85	1435.63
777.03	1396.71
777.21	1488.87
777.39	1470.44
777.57	1406.95
777.75	1427.43
777.92	1376.24
778.10	1435.63
778.28	1517.54
778.46	1466.35
778.64	1443.82
778.82	1378.28
779.00	1376.24
779.18	1380.33
779.36	1521.64
779.53	1390.57
779.71	1413.10
779.89	1466.35
780.07	1568.74
780.25	1396.71
780.43	1478.63
780.61	1386.47
780.79	1433.58
780.96	1429.48
781.14	1441.77
781.32	1417.19
781.50	1396.71
781.68	1466.35
781.86	1363.95
782.04	1474.54
782.21	1480.68
782.39	1417.19
782.57	1392.62
782.75	1443.82
782.93	1394.67
783.11	1378.28
783.29	1402.86
783.46	1431.53
783.64	1439.72
783.82	1429.48
784.00	1454.06
784.18	1386.47
784.36	1413.10
784.54	1400.81
784.71	1476.59
784.89	1388.52
785.07	1392.62
785.25	1386.47
785.43	1439.72
785.60	1425.39
785.78	1499.11
785.96	1406.95
786.14	1460.20
786.32	1421.29
786.50	1527.78
786.67	1452.01
786.85	1429.48
787.03	1423.34
787.21	1370.09
787.39	1423.34
787.56	1484.78
787.74	1443.82
787.92	1470.44
788.10	1417.19
788.28	1394.67
788.45	1452.01
788.63	1443.82
788.81	1359.85
788.99	1415.15
789.17	1449.96
789.34	1413.10
789.52	1316.84
789.70	1343.47
789.88	1452.01
790.06	1374.19
790.23	1443.82
790.41	1439.72
790.59	1402.86
790.77	1472.49
790.95	1458.15
791.12	1392.62
791.30	1435.63
791.48	1421.29
791.66	1327.08
791.83	1533.93
792.01	1376.24
792.19	1468.39
792.37	1439.72
792.54	1353.71
792.72	1482.73
792.90	1456.11
793.08	1366.00
793.25	1343.47
793.43	1404.91
793.61	1419.24
793.79	1398.76
793.96	1409.00
794.14	1468.39
794.32	1392.62
794.50	1585.13
794.67	1415.15
794.85	1419.24
795.03	1380.33
795.21	1400.81
795.38	1368.04
795.56	1435.63
795.74	1413.10
795.92	1470.44
796.09	1398.76
796.27	1337.32
796.45	1464.30
796.62	1351.66
796.80	1425.39
796.98	1386.47
797.16	1386.47
797.33	1398.76
797.51	1396.71
797.69	1368.04
797.86	1394.67
798.04	1433.58
798.22	1388.52
798.40	1480.68
798.57	1411.05
798.75	1368.04
798.93	1443.82
799.10	1431.53
799.28	1394.67
799.46	1292.27
799.63	1404.91
799.81	1376.24
799.99	1411.05
800.17	1353.71
800.34	1333.23
800.52	1454.06
800.70	1415.15
800.87	1363.95
801.05	1460.20
801.23	1366.00
801.40	1509.35
801.58	1361.90
801.76	1427.43
801.93	1339.37
802.11	1447.91
802.29	1413.10
802.46	1398.76
802.64	1419.24
802.82	1398.76
802.99	1394.67
803.17	1431.53
803.35	1482.73
803.52	1452.01
803.70	1368.04
803.88	1423.34
804.05	1384.43
804.23	1361.90
804.41	1372.14
804.58	1388.52
804.76	1402.86
804.94	1413.10
805.11	1384.43
805.29	1470.44
805.46	1335.28
805.64	1396.71
805.82	1392.62
805.99	1427.43
806.17	1388.52
806.35	1327.08
806.52	1394.67
806.70	1409.00
806.87	1366.00
807.05	1382.38
807.23	1443.82
807.40	1433.58
807.58	1406.95
807.76	1429.48
807.93	1437.67
808.11	1429.48
808.28	1472.49
808.46	1419.24
808.64	1380.33
808.81	1374.19
808.99	1388.52
809.16	1437.67
809.34	1320.94
809.52	1363.95
809.69	1382.38
809.87	1392.62
810.04	1402.86
810.22	1366.00
810.40	1474.54
810.57	1386.47
810.75	1458.15
810.92	1413.10
811.10	1374.19
811.28	1318.89
811.45	1335.28
811.63	1452.01
811.80	1404.91
811.98	1363.95
812.15	1429.48
812.33	1351.66
812.51	1411.05
812.68	1402.86
812.86	1409.00
813.03	1374.19
813.21	1394.67
813.38	1378.28
813.56	1347.56
813.74	1355.76
813.91	1335.28
814.09	1394.67
814.26	1374.19
814.44	1320.94
814.61	1413.10
814.79	1345.52
814.96	1415.15
815.14	1363.95
815.31	1382.38
815.49	1413.10
815.67	1435.63
815.84	1380.33
816.02	1351.66
816.19	1478.63
816.37	1409.00
816.54	1421.29
816.72	1374.19
816.89	1392.62
817.07	1316.84
817.24	1417.19
817.42	1415.15
817.59	1370.09
817.77	1384.43
817.94	1400.81
818.12	1355.76
818.29	1447.91
818.47	1392.62
818.64	1345.52
818.82	1320.94
818.99	1306.60
819.17	1302.51
819.34	1331.18
819.52	1372.14
819.69	1409.00
819.87	1378.28
820.04	1370.09
820.22	1349.61
820.39	1423.34
820.57	1378.28
820.74	1386.47
820.92	1415.15
821.09	1363.95
821.27	1329.13
821.44	1376.24
821.62	1370.09
821.79	1402.86
821.97	1372.14
822.14	1341.42
822.32	1419.24
822.49	1351.66
822.67	1394.67
822.84	1441.77
823.02	1341.42
823.19	1306.60
823.37	1349.61
823.54	1368.04
823.72	1439.72
823.89	1415.15
824.06	1398.76
824.24	1402.86
824.41	1353.71
824.59	1345.52
824.76	1392.62
824.94	1398.76
825.11	1388.52
825.29	1347.56
825.46	1390.57
825.63	1322.99
825.81	1300.46
825.98	1474.54
826.16	1353.71
826.33	1368.04
826.51	1411.05
826.68	1445.87
826.86	1380.33
827.03	1355.76
827.20	1343.47
827.38	1361.90
827.55	1392.62
827.73	1302.51
827.90	1355.76
828.07	1415.15
828.25	1370.09
828.42	1327.08
828.60	1406.95
828.77	1335.28
828.95	1480.68
829.12	1380.33
829.29	1314.80
829.47	1415.15
829.64	1239.02
829.82	1314.80
829.99	1349.61
830.16	1306.60
830.34	1384.43
830.51	1388.52
830.69	1361.90
830.86	1327.08
831.03	1435.63
831.21	1333.23
831.38	1368.04
831.55	1216.49
831.73	1376.24
831.90	1409.00
832.08	1300.46
832.25	1464.30
832.42	1433.58
832.60	1286.12
832.77	1378.28
832.94	1380.33
833.12	1374.19
833.29	1402.86
833.47	1366.00
833.64	1378.28
833.81	1402.86
833.99	1341.42
834.16	1355.76
834.33	1308.65
834.51	1386.47
834.68	1304.56
834.85	1310.70
835.03	1386.47
835.20	1363.95
835.37	1333.23
835.55	1349.61
835.72	1433.58
835.90	1290.22
836.07	1304.56
836.24	1339.37
836.42	1406.95
836.59	1361.90
836.76	1382.38
836.94	1349.61
837.11	1331.18
837.28	1312.75
837.46	1388.52
837.63	1378.28
837.80	1366.00
837.97	1347.56
838.15	1277.93
838.32	1413.10
838.49	1413.10
838.67	1290.22
838.84	1402.86
839.01	1331.18
839.19	1337.32
839.36	1318.89
839.53	1366.00
839.71	1400.81
839.88	1325.04
840.05	1353.71
840.22	1398.76
840.40	1314.80
840.57	1325.04
840.74	1339.37
840.92	1402.86
841.09	1413.10
841.26	1376.24
841.43	1320.94
841.61	1390.57
841.78	1343.47
841.95	1339.37
842.13	1370.09
842.30	1347.56
842.47	1320.94
842.64	1382.38
842.82	1343.47
842.99	1384.43
843.16	1413.10
843.34	1257.45
843.51	1249.26
843.68	1337.32
843.85	1331.18
844.03	1351.66
844.20	1320.94
844.37	1361.90
844.54	1337.32
844.72	1386.47
844.89	1406.95
845.06	1361.90
845.23	1306.60
845.41	1409.00
845.58	1320.94
845.75	1351.66
845.92	1429.48
846.10	1300.46
846.27	1277.93
846.44	1355.76
846.61	1343.47
846.78	1368.04
846.96	1380.33
847.13	1335.28
847.30	1398.76
847.47	1349.61
847.65	1322.99
847.82	1372.14
847.99	1331.18
848.16	1341.42
848.33	1267.69
848.51	1398.76
848.68	1245.16
848.85	1294.32
849.02	1286.12
849.19	1296.36
849.37	1318.89
849.54	1345.52
849.71	1296.36
849.88	1394.67
850.05	1359.85
850.23	1343.47
850.40	1298.41
850.57	1353.71
850.74	1357.80
850.91	1366.00
851.09	1327.08
851.26	1320.94
851.43	1345.52
851.60	1366.00
851.77	1331.18
851.95	1370.09
852.12	1306.60
852.29	1296.36
852.46	1372.14
852.63	1370.09
852.80	1269.74
852.98	1386.47
853.15	1343.47
853.32	1286.12
853.49	1343.47
853.66	1322.99
853.83	1300.46
854.01	1320.94
854.18	1316.84
854.35	1310.70
854.52	1306.60
854.69	1400.81
854.86	1239.02
855.03	1406.95
855.21	1327.08
855.38	1372.14
855.55	1298.41
855.72	1349.61
855.89	1380.33
856.06	1380.33
856.23	1366.00
856.41	1312.75
856.58	1333.23
856.75	1351.66
856.92	1363.95
857.09	1314.80
857.26	1320.94
857.43	1388.52
857.60	1267.69
857.78	1306.60
857.95	1337.32
858.12	1325.04
858.29	1374.19
858.46	1359.85
858.63	1312.75
858.80	1282.03
858.97	1415.15
859.14	1400.81
859.32	1300.46
859.49	1329.13
859.66	1300.46
859.83	1329.13
860.00	1384.43
860.17	1357.80
860.34	1292.27
860.51	1251.31
860.68	1343.47
860.85	1335.28
861.02	1419.24
861.20	1329.13
861.37	1304.56
861.54	1374.19
861.71	1298.41
861.88	1300.46
862.05	1390.57
862.22	1359.85
862.39	1273.84
862.56	1322.99
862.73	1320.94
862.90	1335.28
863.07	1300.46
863.24	1413.10
863.41	1353.71
863.59	1269.74
863.76	1302.51
863.93	1261.55
864.10	1288.17
864.27	1325.04
864.44	1300.46
864.61	1261.55
864.78	1288.17
864.95	1310.70
865.12	1370.09
865.29	1400.81
865.46	1374.19
865.63	1329.13
865.80	1271.79
865.97	1355.76
866.14	1288.17
866.31	1398.76
866.48	1347.56
866.65	1320.94
866.82	1345.52
866.99	1390.57
867.16	1318.89
867.33	1284.08
867.50	1314.80
867.67	1363.95
867.84	1363.95
868.01	1282.03
868.18	1400.81
868.35	1327.08
868.52	1302.51
868.69	1345.52
868.86	1335.28
869.03	1306.60
869.20	1263.60
869.37	1308.65
869.54	1294.32
869.71	1267.69
869.88	1349.61
870.05	1325.04
870.22	1329.13
870.39	1269.74
870.56	1327.08
870.73	1394.67
870.90	1331.18
871.07	1298.41
871.24	1368.04
871.41	1329.13
871.58	1294.32
871.75	1357.80
871.92	1345.52
872.09	1345.52
872.26	1261.55
872.43	1306.60
872.60	1279.98
872.77	1236.97
872.94	1284.08
873.11	1282.03
873.28	1290.22
873.45	1308.65
873.62	1275.88
873.79	1320.94
873.96	1335.28
874.13	1282.03
874.30	1239.02
874.47	1308.65
874.64	1251.31
874.80	1304.56
874.97	1378.28
875.14	1327.08
875.31	1357.80
875.48	1347.56
875.65	1327.08
875.82	1368.04
875.99	1263.60
876.16	1257.45
876.33	1241.07
876.50	1241.07
876.67	1290.22
876.84	1386.47
877.01	1288.17
877.17	1269.74
877.34	1298.41
877.51	1318.89
877.68	1267.69
877.85	1378.28
878.02	1314.80
878.19	1290.22
878.36	1327.08
878.53	1386.47
878.70	1290.22
878.87	1320.94
879.03	1312.75
879.20	1288.17
879.37	1267.69
879.54	1343.47
879.71	1298.41
879.88	1304.56
880.05	1228.78
880.22	1294.32
880.39	1345.52
880.55	1228.78
880.72	1255.40
880.89	1302.51
881.06	1245.16
881.23	1318.89
881.40	1275.88
881.57	1292.27
881.74	1220.59
881.90	1386.47
882.07	1304.56
882.24	1288.17
882.41	1316.84
882.58	1331.18
882.75	1271.79
882.92	1298.41
883.08	1318.89
883.25	1300.46
883.42	1271.79
883.59	1351.66
883.76	1316.84
883.93	1308.65
884.09	1288.17
884.26	1335.28
884.43	1351.66
884.60	1312.75
884.77	1284.08
884.94	1316.84
885.10	1183.73
885.27	1370.09
885.44	1290.22
885.61	1271.79
885.78	1310.70
885.95	1306.60
886.11	1255.40
886.28	1314.80
886.45	1234.93
886.62	1318.89
886.79	1320.94
886.96	1255.40
887.12	1327.08
887.29	1335.28
887.46	1277.93
887.63	1290.22
887.80	1275.88
887.96	1337.32
888.13	1298.41
888.30	1302.51
888.47	1245.16
888.64	1304.56
888.80	1257.45
888.97	1341.42
889.14	1251.31
889.31	1298.41
889.47	1263.60
889.64	1306.60
889.81	1339.37
889.98	1306.60
890.15	1310.70
890.31	1255.40
890.48	1255.40
890.65	1255.40
890.82	1255.40
890.98	1255.40
891.15	1255.40
>>>>>End Processed Spectral Data<<<<<
